"","phase","question","trialNum","swatch","response","responseCoded","rt","subid","age","timeOfTest","condition","gender","englishExposure","trialComments","sessionComments","ageCalc"
"1","practice",NA,1,"apple_1","skip",NA,12813,"blank",NA,"15:12","set4",NA,NA,NA,"NO PARENT - drop",NA
"2","practice",NA,2,"apple_2","skip",NA,4114,"blank",NA,"15:12","set4",NA,NA,NA,"NO PARENT - drop",NA
"3","practice",NA,3,"apple_3","skip",NA,3110,"blank",NA,"15:12","set4",NA,NA,NA,"NO PARENT - drop",NA
"4","practice",NA,4,"apple_1","skip",NA,11865,"blank",NA,"15:12","set4",NA,NA,NA,"NO PARENT - drop",NA
"5","study","do you think this one is an animal?",5,"BI2A00001","YES",NA,11588,"blank",NA,"15:12","set4",NA,NA,NA,"NO PARENT - drop",NA
"6","study","do you think this one is an animal?",6,"BI2A00039","maybe NO",-0.3,41065,"blank",NA,"15:12","set4",NA,NA,NA,"NO PARENT - drop",NA
"7","study","do you think this one is an animal?",7,"BI2A00048","maybe YES",0.3,34409,"blank",NA,"15:12","set4",NA,NA,NA,"NO PARENT - drop",NA
"8","study","do you think this one is an animal?",8,"BI2A00029","maybe NO",-0.3,18231,"blank",NA,"15:12","set4",NA,NA,NA,"NO PARENT - drop",NA
"9","study","do you think this one is an animal?",9,"BI2A00023","skip",NA,22794,"blank",NA,"15:12","set4",NA,NA,NA,"NO PARENT - drop",NA
"10","study","do you think this one is an animal?",10,"BI2A00021","NO",NA,15953,"blank",NA,"15:12","set4",NA,NA,NA,"NO PARENT - drop",NA
"11","study","do you think this one is an animal?",11,"BI2A00024","definitely YES",1.5,23170,"blank",NA,"15:12","set4",NA,NA,NA,"NO PARENT - drop",NA
"12","study","do you think this one is an animal?",12,"BI2A00011","definitely YES",1.5,7751,"blank",NA,"15:12","set4",NA,NA,NA,"NO PARENT - drop",NA
"13","study","do you think this one is an animal?",13,"BI2A00009","maybe YES",0.3,12075,"blank",NA,"15:12","set4",NA,NA,NA,"NO PARENT - drop",NA
"14","study","do you think this one is an animal?",14,"BI2A00022","maybe YES",0.3,42225,"blank",NA,"15:12","set4",NA,NA,NA,"NO PARENT - drop",NA
"15","study","do you think this one is an animal?",15,"BI2A00042","skip",NA,21574,"blank",NA,"15:12","set4",NA,NA,NA,"NO PARENT - drop",NA
"16","study","do you think this one is an animal?",16,"BI2A00012","skip",NA,9107,"blank",NA,"15:12","set4",NA,NA,NA,"NO PARENT - drop",NA
"17","practice",NA,-3,"apple_1","skip",NA,792,"test",NA,"11:51","set1",NA,NA,NA,"too young - drop",NA
"18","practice",NA,-2,"apple_2","skip",NA,5031,"test",NA,"11:51","set1",NA,NA,NA,"too young - drop",NA
"19","practice",NA,-1,"apple_3","skip",NA,2842,"test",NA,"11:51","set1",NA,NA,NA,"too young - drop",NA
"20","practice",NA,0,"apple_1","skip",NA,622,"test",NA,"11:51","set1",NA,NA,NA,"too young - drop",NA
"21","study","Do you think this one is an animal?",1,"BI2A00003","skip",NA,9606,"test",NA,"11:51","set1",NA,NA,NA,"too young - drop",NA
"22","study","Do you think this one is an animal?",2,"BI2A00014","skip",NA,10562,"test",NA,"11:51","set1",NA,NA,NA,"too young - drop",NA
"23","study","do you think this one is an animal?",1,"BI2A00014","probably NO",-0.9,25416,"p01",4.879452055,NA,"set1","male",NA,NA,NA,-1995y 0m -30d -6H 0M 0S
"24","study","do you think this one is an animal?",2,"BI2A00046","maybe NO",-0.3,16723,"p01",4.879452055,NA,"set1","male",NA,NA,NA,-1995y 0m -30d -6H 0M 0S
"25","study","do you think this one is an animal?",3,"BI2A00003","definitely YES",1.5,14635,"p01",4.879452055,NA,"set1","male",NA,NA,NA,-1995y 0m -30d -6H 0M 0S
"26","study","do you think this one is an animal?",4,"BI2A00020","maybe YES",0.3,19117,"p01",4.879452055,NA,"set1","male",NA,NA,NA,-1995y 0m -30d -6H 0M 0S
"27","study","do you think this one is an animal?",5,"BI2A00008","maybe YES",0.3,20500,"p01",4.879452055,NA,"set1","male",NA,NA,NA,-1995y 0m -30d -6H 0M 0S
"28","study","do you think this one is an animal?",6,"BI2A00030","definitely NO",-1.5,10484,"p01",4.879452055,NA,"set1","male",NA,NA,NA,-1995y 0m -30d -6H 0M 0S
"29","study","do you think this one is an animal?",7,"BI2A00043","definitely NO",-1.5,9153,"p01",4.879452055,NA,"set1","male",NA,NA,NA,-1995y 0m -30d -6H 0M 0S
"30","study","do you think this one is an animal?",8,"BI2A00047","maybe NO",-0.3,10344,"p01",4.879452055,NA,"set1","male",NA,NA,NA,-1995y 0m -30d -6H 0M 0S
"31","study","do you think this one is an animal?",9,"BI2A00028","probably YES",0.9,12612,"p01",4.879452055,NA,"set1","male",NA,NA,NA,-1995y 0m -30d -6H 0M 0S
"32","study","do you think this one is an animal?",10,"BI2A00033","definitely NO",-1.5,18666,"p01",4.879452055,NA,"set1","male",NA,NA,NA,-1995y 0m -30d -6H 0M 0S
"33","study","do you think this one is an animal?",11,"BI2A00031","definitely NO",-1.5,8887,"p01",4.879452055,NA,"set1","male",NA,NA,NA,-1995y 0m -30d -6H 0M 0S
"34","study","do you think this one is an animal?",12,"BI2A00015","maybe YES",0.3,11994,"p01",4.879452055,NA,"set1","male",NA,NA,NA,-1995y 0m -30d -6H 0M 0S
"35","study","do you think this one is an animal?",1,"BI2A00015","n",NA,14314,"p02",3.082191781,NA,"set1","male","always","",NA,-1996y 0m -321d 0H 0M 0S
"36","study","do you think this one is an animal?",2,"BI2A00008","y",NA,5331,"p02",3.082191781,NA,"set1","male","always","",NA,-1996y 0m -321d 0H 0M 0S
"37","study","do you think this one is an animal?",3,"BI2A00014","y",NA,4317,"p02",3.082191781,NA,"set1","male","always","",NA,-1996y 0m -321d 0H 0M 0S
"38","study","do you think this one is an animal?",4,"BI2A00033","n",NA,11763,"p02",3.082191781,NA,"set1","male","always","sand",NA,-1996y 0m -321d 0H 0M 0S
"39","study","do you think this one is an animal?",5,"BI2A00031","n",NA,20431,"p02",3.082191781,NA,"set1","male","always","black thing carpet",NA,-1996y 0m -321d 0H 0M 0S
"40","study","do you think this one is an animal?",6,"BI2A00030","n",NA,13259,"p02",3.082191781,NA,"set1","male","always","",NA,-1996y 0m -321d 0H 0M 0S
"41","study","do you think this one is an animal?",7,"BI2A00047","n",NA,6137,"p02",3.082191781,NA,"set1","male","always","",NA,-1996y 0m -321d 0H 0M 0S
"42","study","do you think this one is an animal?",8,"BI2A00046","n",NA,5069,"p02",3.082191781,NA,"set1","male","always","",NA,-1996y 0m -321d 0H 0M 0S
"43","study","do you think this one is an animal?",9,"BI2A00020","n",NA,7038,"p02",3.082191781,NA,"set1","male","always","",NA,-1996y 0m -321d 0H 0M 0S
"44","study","do you think this one is an animal?",10,"BI2A00003","y",NA,5266,"p02",3.082191781,NA,"set1","male","always","",NA,-1996y 0m -321d 0H 0M 0S
"45","study","do you think this one is an animal?",11,"BI2A00043","y",NA,24703,"p02",3.082191781,NA,"set1","male","always","",NA,-1996y 0m -321d 0H 0M 0S
"46","study","do you think this one is an animal?",12,"BI2A00028","n",NA,6251,"p02",3.082191781,NA,"set1","male","always","",NA,-1996y 0m -321d 0H 0M 0S
"47","bonus","do you think this can feel happy?",13,"BI2A00043","n",NA,12049,"p02",3.082191781,NA,"set1","male","always","",NA,-1996y 0m -321d 0H 0M 0S
"48","bonus","do you think this one has feelings",14,"BI2A00008","y",NA,6863,"p02",3.082191781,NA,"set1","male","always","",NA,-1996y 0m -321d 0H 0M 0S
"49","bonus","do you think this one can think?",15,"BI2A00031","n",NA,6581,"p02",3.082191781,NA,"set1","male","always","",NA,-1996y 0m -321d 0H 0M 0S
"50","bonus","do you think this one can sense things nearby",16,"BI2A00046","n",NA,7873,"p02",3.082191781,NA,"set1","male","always","",NA,-1996y 0m -321d 0H 0M 0S
"51","bonus","do you think this one can feel pain",17,"BI2A00003","n",NA,12623,"p02",3.082191781,NA,"set1","male","always","",NA,-1996y 0m -321d 0H 0M 0S
"52","bonus","do you think this one can feel hungry",18,"BI2A00020","y",NA,5750,"p02",3.082191781,NA,"set1","male","always","",NA,-1996y 0m -321d 0H 0M 0S
"53","study","do you think this one is an animal?",1,"BI2A00045","n",NA,22880,"p03",3.621917808,NA,"set2","female","always","basket",NA,-1996y 0m -124d 0H 0M 0S
"54","study","do you think this one is an animal?",2,"BI2A00034","n",NA,14199,"p03",3.621917808,NA,"set2","female","always","",NA,-1996y 0m -124d 0H 0M 0S
"55","study","do you think this one is an animal?",3,"BI2A00040","n",NA,9477,"p03",3.621917808,NA,"set2","female","always","carpet",NA,-1996y 0m -124d 0H 0M 0S
"56","study","do you think this one is an animal?",4,"BI2A00032","n",NA,11427,"p03",3.621917808,NA,"set2","female","always","wallet",NA,-1996y 0m -124d 0H 0M 0S
"57","study","do you think this one is an animal?",5,"BI2A00016","n",NA,10416,"p03",3.621917808,NA,"set2","female","always","",NA,-1996y 0m -124d 0H 0M 0S
"58","study","do you think this one is an animal?",6,"BI2A00038","n",NA,11422,"p03",3.621917808,NA,"set2","female","always","",NA,-1996y 0m -124d 0H 0M 0S
"59","study","do you think this one is an animal?",7,"BI2A00037","n",NA,7475,"p03",3.621917808,NA,"set2","female","always","",NA,-1996y 0m -124d 0H 0M 0S
"60","study","do you think this one is an animal?",8,"BI2A00002","y",NA,18446,"p03",3.621917808,NA,"set2","female","always","dinosaur",NA,-1996y 0m -124d 0H 0M 0S
"61","study","do you think this one is an animal?",9,"BI2A00013","n",NA,8658,"p03",3.621917808,NA,"set2","female","always","",NA,-1996y 0m -124d 0H 0M 0S
"62","study","do you think this one is an animal?",10,"BI2A00041","n",NA,4475,"p03",3.621917808,NA,"set2","female","always","",NA,-1996y 0m -124d 0H 0M 0S
"63","study","do you think this one is an animal?",11,"BI2A00006","n",NA,7380,"p03",3.621917808,NA,"set2","female","always","",NA,-1996y 0m -124d 0H 0M 0S
"64","study","do you think this one is an animal?",12,"BI2A00004","n",NA,5334,"p03",3.621917808,NA,"set2","female","always","",NA,-1996y 0m -124d 0H 0M 0S
"65","study","do you think this one is an animal?",1,"BI2A00029","maybe NO",-0.3,17443,"p04",3.830136986,NA,"set4","female",NA,NA,"PARENTS TALKING DURING SESSION, GIVING ANSWERS - drop",-1996y 0m -48d 0H 0M 0S
"66","study","do you think this one is an animal?",2,"BI2A00011","maybe NO",-0.3,22317,"p04",3.830136986,NA,"set4","female",NA,NA,"PARENTS TALKING DURING SESSION, GIVING ANSWERS - drop",-1996y 0m -48d 0H 0M 0S
"67","study","do you think this one is an animal?",3,"BI2A00021","maybe NO",-0.3,10965,"p04",3.830136986,NA,"set4","female",NA,NA,"PARENTS TALKING DURING SESSION, GIVING ANSWERS - drop",-1996y 0m -48d 0H 0M 0S
"68","study","do you think this one is an animal?",4,"BI2A00024","skip",NA,45856,"p04",3.830136986,NA,"set4","female",NA,NA,"PARENTS TALKING DURING SESSION, GIVING ANSWERS - drop",-1996y 0m -48d 0H 0M 0S
"69","study","do you think this one is an animal?",5,"BI2A00042","maybe NO",-0.3,42111,"p04",3.830136986,NA,"set4","female",NA,NA,"PARENTS TALKING DURING SESSION, GIVING ANSWERS - drop",-1996y 0m -48d 0H 0M 0S
"70","study","do you think this one is an animal?",6,"BI2A00012","maybe NO",-0.3,15506,"p04",3.830136986,NA,"set4","female",NA,NA,"PARENTS TALKING DURING SESSION, GIVING ANSWERS - drop",-1996y 0m -48d 0H 0M 0S
"71","study","do you think this one is an animal?",7,"BI2A00001","skip",NA,44761,"p04",3.830136986,NA,"set4","female",NA,NA,"PARENTS TALKING DURING SESSION, GIVING ANSWERS - drop",-1996y 0m -48d 0H 0M 0S
"72","study","do you think this one is an animal?",8,"BI2A00022","maybe NO",-0.3,7083,"p04",3.830136986,NA,"set4","female",NA,NA,"PARENTS TALKING DURING SESSION, GIVING ANSWERS - drop",-1996y 0m -48d 0H 0M 0S
"73","study","do you think this one is an animal?",9,"BI2A00039","maybe NO",-0.3,5312,"p04",3.830136986,NA,"set4","female",NA,NA,"PARENTS TALKING DURING SESSION, GIVING ANSWERS - drop",-1996y 0m -48d 0H 0M 0S
"74","study","do you think this one is an animal?",10,"BI2A00009","maybe NO",-0.3,11327,"p04",3.830136986,NA,"set4","female",NA,NA,"PARENTS TALKING DURING SESSION, GIVING ANSWERS - drop",-1996y 0m -48d 0H 0M 0S
"75","study","do you think this one is an animal?",11,"BI2A00023","skip",NA,17803,"p04",3.830136986,NA,"set4","female",NA,NA,"PARENTS TALKING DURING SESSION, GIVING ANSWERS - drop",-1996y 0m -48d 0H 0M 0S
"76","study","do you think this one is an animal?",12,"BI2A00048","skip",NA,569,"p04",3.830136986,NA,"set4","female",NA,NA,"PARENTS TALKING DURING SESSION, GIVING ANSWERS - drop",-1996y 0m -48d 0H 0M 0S
"77","study","do you think this one is an animal?",1,"BI2A00026","definitely YES",1.5,22804,"p05",4.693150685,NA,"set3","female","always",NA,NA,-1995y 0m -98d -6H 0M 0S
"78","study","do you think this one is an animal?",2,"BI2A00036","maybe NO",-0.3,26745,"p05",4.693150685,NA,"set3","female","always",NA,NA,-1995y 0m -98d -6H 0M 0S
"79","study","do you think this one is an animal?",3,"BI2A00027","definitely YES",1.5,21958,"p05",4.693150685,NA,"set3","female","always",NA,NA,-1995y 0m -98d -6H 0M 0S
"80","study","do you think this one is an animal?",4,"BI2A00035","definitely NO",-1.5,18273,"p05",4.693150685,NA,"set3","female","always",NA,NA,-1995y 0m -98d -6H 0M 0S
"81","study","do you think this one is an animal?",5,"BI2A00007","maybe YES",0.3,21511,"p05",4.693150685,NA,"set3","female","always",NA,NA,-1995y 0m -98d -6H 0M 0S
"82","study","do you think this one is an animal?",6,"BI2A00019","definitely YES",1.5,29024,"p05",4.693150685,NA,"set3","female","always",NA,NA,-1995y 0m -98d -6H 0M 0S
"83","study","do you think this one is an animal?",7,"BI2A00025","probably NO",-0.9,25284,"p05",4.693150685,NA,"set3","female","always",NA,NA,-1995y 0m -98d -6H 0M 0S
"84","study","do you think this one is an animal?",8,"BI2A00017","definitely YES",1.5,21660,"p05",4.693150685,NA,"set3","female","always",NA,NA,-1995y 0m -98d -6H 0M 0S
"85","study","do you think this one is an animal?",9,"BI2A00010","definitely YES",1.5,17311,"p05",4.693150685,NA,"set3","female","always",NA,NA,-1995y 0m -98d -6H 0M 0S
"86","study","do you think this one is an animal?",10,"BI2A00005","maybe YES",0.3,14195,"p05",4.693150685,NA,"set3","female","always",NA,NA,-1995y 0m -98d -6H 0M 0S
"87","study","do you think this one is an animal?",11,"BI2A00018","definitely NO",-1.5,15235,"p05",4.693150685,NA,"set3","female","always",NA,NA,-1995y 0m -98d -6H 0M 0S
"88","study","do you think this one is an animal?",12,"BI2A00044","definitely NO",-1.5,8898,"p05",4.693150685,NA,"set3","female","always",NA,NA,-1995y 0m -98d -6H 0M 0S
"89","bonus","do you think this can feel happy?",13,"BI2A00007","definitely YES",1.5,17701,"p05",4.693150685,NA,"set3","female","always",NA,NA,-1995y 0m -98d -6H 0M 0S
"90","bonus","do you think this one has feelings?",14,"BI2A00018","definitely NO",-1.5,16660,"p05",4.693150685,NA,"set3","female","always",NA,NA,-1995y 0m -98d -6H 0M 0S
"91","bonus","do you think this one can feel hungry?",15,"BI2A00005","definitely YES",1.5,14068,"p05",4.693150685,NA,"set3","female","always",NA,NA,-1995y 0m -98d -6H 0M 0S
"92","bonus","do you think this one can think?",16,"BI2A00017","definitely YES",1.5,15843,"p05",4.693150685,NA,"set3","female","always",NA,NA,-1995y 0m -98d -6H 0M 0S
"93","bonus","do you think this one can feel pain?",17,"BI2A00044","maybe NO",-0.3,16631,"p05",4.693150685,NA,"set3","female","always",NA,NA,-1995y 0m -98d -6H 0M 0S
"94","bonus","do you think this one can sense things nearby?",18,"BI2A00035","definitely NO",-1.5,18694,"p05",4.693150685,NA,"set3","female","always",NA,NA,-1995y 0m -98d -6H 0M 0S
"95","study","do you think this one is an animal?",1,"BI2A00008","y",NA,13834,"p06",3.287671233,NA,"set1","female","always","",NA,-1996y 0m -246d 0H 0M 0S
"96","study","do you think this one is an animal?",2,"BI2A00003","y",NA,6708,"p06",3.287671233,NA,"set1","female","always","",NA,-1996y 0m -246d 0H 0M 0S
"97","study","do you think this one is an animal?",3,"BI2A00047","y",NA,6074,"p06",3.287671233,NA,"set1","female","always","",NA,-1996y 0m -246d 0H 0M 0S
"98","study","do you think this one is an animal?",4,"BI2A00015","y",NA,4702,"p06",3.287671233,NA,"set1","female","always","",NA,-1996y 0m -246d 0H 0M 0S
"99","study","do you think this one is an animal?",5,"BI2A00033","y",NA,6277,"p06",3.287671233,NA,"set1","female","always","",NA,-1996y 0m -246d 0H 0M 0S
"100","study","do you think this one is an animal?",6,"BI2A00046","y",NA,8057,"p06",3.287671233,NA,"set1","female","always","",NA,-1996y 0m -246d 0H 0M 0S
"101","study","do you think this one is an animal?",7,"BI2A00014","y",NA,16725,"p06",3.287671233,NA,"set1","female","always","maybe a giraffe",NA,-1996y 0m -246d 0H 0M 0S
"102","study","do you think this one is an animal?",8,"BI2A00031","y",NA,17155,"p06",3.287671233,NA,"set1","female","always","maybe a polkadot",NA,-1996y 0m -246d 0H 0M 0S
"103","study","do you think this one is an animal?",9,"BI2A00043","y",NA,13347,"p06",3.287671233,NA,"set1","female","always","maybe a panda",NA,-1996y 0m -246d 0H 0M 0S
"104","study","do you think this one is an animal?",10,"BI2A00020","y",NA,8274,"p06",3.287671233,NA,"set1","female","always","",NA,-1996y 0m -246d 0H 0M 0S
"105","study","do you think this one is an animal?",11,"BI2A00028","y",NA,9639,"p06",3.287671233,NA,"set1","female","always","",NA,-1996y 0m -246d 0H 0M 0S
"106","study","do you think this one is an animal?",12,"BI2A00030","y",NA,15524,"p06",3.287671233,NA,"set1","female","always","a baby panda",NA,-1996y 0m -246d 0H 0M 0S
"107","bonus","do you think this can feel happy?",13,"BI2A00043","y",NA,11193,"p06",3.287671233,NA,"set1","female","always","",NA,-1996y 0m -246d 0H 0M 0S
"108","bonus","do you think this one can think?",14,"BI2A00046","y",NA,7455,"p06",3.287671233,NA,"set1","female","always","",NA,-1996y 0m -246d 0H 0M 0S
"109","bonus","do you think this one has feelings?",15,"BI2A00020","y",NA,9240,"p06",3.287671233,NA,"set1","female","always","",NA,-1996y 0m -246d 0H 0M 0S
"110","bonus","do you think this one can feel hungry?",16,"BI2A00003","skip",NA,17981,"p06",3.287671233,NA,"set1","female","always","baby giraffe",NA,-1996y 0m -246d 0H 0M 0S
"111","bonus","do you think this one can feel pain?",17,"BI2A00008","skip",NA,20844,"p06",3.287671233,NA,"set1","female","always","a brother giraffe",NA,-1996y 0m -246d 0H 0M 0S
"112","bonus","do you think this one can sense things nearby?",18,"BI2A00031","skip",NA,15234,"p06",3.287671233,NA,"set1","female","always","a baby giraffe",NA,-1996y 0m -246d 0H 0M 0S
"113","study","do you think this one is an animal?",1,"BI2A00006","n",NA,17843,"p07",3.347945205,NA,"set2","female",NA,NA,"LIMITED ENGLISH - drop",-1996y 0m -224d 0H 0M 0S
"114","study","do you think this one is an animal?",2,"BI2A00045","n",NA,7673,"p07",3.347945205,NA,"set2","female",NA,NA,"LIMITED ENGLISH - drop",-1996y 0m -224d 0H 0M 0S
"115","study","do you think this one is an animal?",3,"BI2A00032","n",NA,9039,"p07",3.347945205,NA,"set2","female",NA,NA,"LIMITED ENGLISH - drop",-1996y 0m -224d 0H 0M 0S
"116","study","do you think this one is an animal?",4,"BI2A00013","n",NA,7869,"p07",3.347945205,NA,"set2","female",NA,NA,"LIMITED ENGLISH - drop",-1996y 0m -224d 0H 0M 0S
"117","study","do you think this one is an animal?",5,"BI2A00013","n",NA,NA,"p07",3.347945205,NA,"set2","female",NA,NA,"LIMITED ENGLISH - drop",-1996y 0m -224d 0H 0M 0S
"118","study","do you think this one is an animal?",1,"BI2A00005","y",NA,39040,"p08",5.323287671,NA,"set3","female",NA,"",NA,-1994y 0m -233d -12H 0M 0S
"119","study","do you think this one is an animal?",2,"BI2A00010","n",NA,13442,"p08",5.323287671,NA,"set3","female",NA,"",NA,-1994y 0m -233d -12H 0M 0S
"120","study","do you think this one is an animal?",3,"BI2A00017","n",NA,20082,"p08",5.323287671,NA,"set3","female",NA,"brown wall",NA,-1994y 0m -233d -12H 0M 0S
"121","study","do you think this one is an animal?",4,"BI2A00035","n",NA,10121,"p08",5.323287671,NA,"set3","female",NA,"rug",NA,-1994y 0m -233d -12H 0M 0S
"122","study","do you think this one is an animal?",5,"BI2A00025","n",NA,16557,"p08",5.323287671,NA,"set3","female",NA,"carpet",NA,-1994y 0m -233d -12H 0M 0S
"123","study","do you think this one is an animal?",6,"BI2A00007","y",NA,11654,"p08",5.323287671,NA,"set3","female",NA,"chick",NA,-1994y 0m -233d -12H 0M 0S
"124","study","do you think this one is an animal?",7,"BI2A00019","skip",NA,27121,"p08",5.323287671,NA,"set3","female",NA,"IDK",NA,-1994y 0m -233d -12H 0M 0S
"125","study","do you think this one is an animal?",8,"BI2A00036","n",NA,12594,"p08",5.323287671,NA,"set3","female",NA,"carpet",NA,-1994y 0m -233d -12H 0M 0S
"126","study","do you think this one is an animal?",9,"BI2A00044","n",NA,26550,"p08",5.323287671,NA,"set3","female",NA,"on the ground when you walking",NA,-1994y 0m -233d -12H 0M 0S
"127","study","do you think this one is an animal?",10,"BI2A00026","n",NA,23910,"p08",5.323287671,NA,"set3","female",NA,"a pokey thing",NA,-1994y 0m -233d -12H 0M 0S
"128","study","do you think this one is an animal?",11,"BI2A00027","n",NA,13992,"p08",5.323287671,NA,"set3","female",NA,"a white and dirty wall",NA,-1994y 0m -233d -12H 0M 0S
"129","study","do you think this one is an animal?",12,"BI2A00018","n",NA,8123,"p08",5.323287671,NA,"set3","female",NA,"",NA,-1994y 0m -233d -12H 0M 0S
"130","bonus","do you think this one can feel hungry?",13,"BI2A00007","n",NA,10646,"p08",5.323287671,NA,"set3","female",NA,"",NA,-1994y 0m -233d -12H 0M 0S
"131","bonus","do you think this one can think?",14,"BI2A00017","n",NA,8386,"p08",5.323287671,NA,"set3","female",NA,"",NA,-1994y 0m -233d -12H 0M 0S
"132","bonus","do you think this can feel happy?",15,"BI2A00035","n",NA,29856,"p08",5.323287671,NA,"set3","female",NA,"not a living thing",NA,-1994y 0m -233d -12H 0M 0S
"133","bonus","do you think this one can see?",16,"BI2A00018","n",NA,14958,"p08",5.323287671,NA,"set3","female",NA,"no eyes",NA,-1994y 0m -233d -12H 0M 0S
"134","bonus","do you think this one can feel pain",17,"BI2A00044","n",-1.5,9623,"p08",5.323287671,NA,"set3","female",NA,"",NA,-1994y 0m -233d -12H 0M 0S
"135","bonus","do you think this one can feel sad?",18,"BI2A00005","y",NA,11020,"p08",5.323287671,NA,"set3","female",NA,"",NA,-1994y 0m -233d -12H 0M 0S
"136","practice",NA,1,"apple_1","skip",NA,12140,"p09",6.378082192,"14:42","set4","male","always","",NA,-1993y 0m -213d -18H 0M 0S
"137","practice",NA,2,"apple_2","skip",NA,4135,"p09",6.378082192,"14:42","set4","male","always","",NA,-1993y 0m -213d -18H 0M 0S
"138","practice",NA,3,"apple_3","skip",NA,3763,"p09",6.378082192,"14:42","set4","male","always","",NA,-1993y 0m -213d -18H 0M 0S
"139","practice",NA,4,"apple_1","skip",NA,19523,"p09",6.378082192,"14:42","set4","male","always","",NA,-1993y 0m -213d -18H 0M 0S
"140","study","do you think this one is an animal?",5,"BI2A00024","definitely YES",1.5,13629,"p09",6.378082192,"14:42","set4","male","always","",NA,-1993y 0m -213d -18H 0M 0S
"141","study","do you think this one is an animal?",6,"BI2A00022","skip",NA,43900,"p09",6.378082192,"14:42","set4","male","always","both",NA,-1993y 0m -213d -18H 0M 0S
"142","study","do you think this one is an animal?",7,"BI2A00001","probably YES",0.9,15461,"p09",6.378082192,"14:42","set4","male","always","",NA,-1993y 0m -213d -18H 0M 0S
"143","study","do you think this one is an animal?",8,"BI2A00042","probably YES",0.9,15693,"p09",6.378082192,"14:42","set4","male","always","dolphin",NA,-1993y 0m -213d -18H 0M 0S
"144","study","do you think this one is an animal?",9,"BI2A00029","definitely YES",1.5,25634,"p09",6.378082192,"14:42","set4","male","always","koalas",NA,-1993y 0m -213d -18H 0M 0S
"145","study","do you think this one is an animal?",10,"BI2A00011","definitely YES",1.5,20660,"p09",6.378082192,"14:42","set4","male","always","elephant",NA,-1993y 0m -213d -18H 0M 0S
"146","study","do you think this one is an animal?",11,"BI2A00048","definitely YES",1.5,11089,"p09",6.378082192,"14:42","set4","male","always","zebra",NA,-1993y 0m -213d -18H 0M 0S
"147","study","do you think this one is an animal?",12,"BI2A00012","probably NO",-0.9,32815,"p09",6.378082192,"14:42","set4","male","always","IDK maybe",NA,-1993y 0m -213d -18H 0M 0S
"148","study","do you think this one is an animal?",13,"BI2A00039","definitely NO",-1.5,14817,"p09",6.378082192,"14:42","set4","male","always","rocks, cause animals don't have that",NA,-1993y 0m -213d -18H 0M 0S
"149","study","do you think this one is an animal?",14,"BI2A00021","definitely NO",-1.5,23544,"p09",6.378082192,"14:42","set4","male","always","ground",NA,-1993y 0m -213d -18H 0M 0S
"150","study","do you think this one is an animal?",15,"BI2A00009","maybe YES",0.3,28263,"p09",6.378082192,"14:42","set4","male","always","IDK what kind",NA,-1993y 0m -213d -18H 0M 0S
"151","study","do you think this one is an animal?",16,"BI2A00023","maybe NO",-0.3,28520,"p09",6.378082192,"14:42","set4","male","always","sometimes",NA,-1993y 0m -213d -18H 0M 0S
"152","bonus","Do you think this one has feelings?",17,"BI2A00048","skip",NA,17745,"p09",6.378082192,"14:42","set4","male","always","IDK maybe",NA,-1993y 0m -213d -18H 0M 0S
"153","bonus","Do you think this one can feel hungry?",18,"BI2A00011","definitely YES",1.5,11896,"p09",6.378082192,"14:42","set4","male","always","",NA,-1993y 0m -213d -18H 0M 0S
"154","bonus","Do you think this one can sense things nearby?",19,"BI2A00022","definitely NO",-1.5,12330,"p09",6.378082192,"14:42","set4","male","always","",NA,-1993y 0m -213d -18H 0M 0S
"155","bonus","Do you think this one can think?",20,"BI2A00009","maybe YES",0.3,13267,"p09",6.378082192,"14:42","set4","male","always","all animals can think",NA,-1993y 0m -213d -18H 0M 0S
"156","bonus","Do you think this one can feel pain?",21,"BI2A00023","skip",NA,14201,"p09",6.378082192,"14:42","set4","male","always","maybe both",NA,-1993y 0m -213d -18H 0M 0S
"157","bonus","Do you think this can feel happy?",22,"BI2A00039","definitely NO",-1.5,18446,"p09",6.378082192,"14:42","set4","male","always","does nothing cuz it's rocks",NA,-1993y 0m -213d -18H 0M 0S
"158","practice",NA,1,"apple_1","skip",NA,19075,"p10",6.668493151,"15:00","set3","male","always","",NA,-1993y 0m -107d -18H 0M 0S
"159","practice",NA,2,"apple_2","skip",NA,3398,"p10",6.668493151,"15:00","set3","male","always","",NA,-1993y 0m -107d -18H 0M 0S
"160","practice",NA,3,"apple_3","skip",NA,20107,"p10",6.668493151,"15:00","set3","male","always","",NA,-1993y 0m -107d -18H 0M 0S
"161","practice",NA,4,"apple_1","skip",NA,9592,"p10",6.668493151,"15:00","set3","male","always","",NA,-1993y 0m -107d -18H 0M 0S
"162","study","do you think this one is an animal?",5,"BI2A00005","definitely YES",1.5,17821,"p10",6.668493151,"15:00","set3","male","always","",NA,-1993y 0m -107d -18H 0M 0S
"163","study","do you think this one is an animal?",6,"BI2A00019","definitely YES",1.5,12970,"p10",6.668493151,"15:00","set3","male","always","",NA,-1993y 0m -107d -18H 0M 0S
"164","study","do you think this one is an animal?",7,"BI2A00027","definitely NO",-1.5,19251,"p10",6.668493151,"15:00","set3","male","always","",NA,-1993y 0m -107d -18H 0M 0S
"165","study","do you think this one is an animal?",8,"BI2A00035","definitely NO",-1.5,5438,"p10",6.668493151,"15:00","set3","male","always","",NA,-1993y 0m -107d -18H 0M 0S
"166","study","do you think this one is an animal?",9,"BI2A00036","definitely NO",-1.5,24439,"p10",6.668493151,"15:00","set3","male","always","kind of looks like wool",NA,-1993y 0m -107d -18H 0M 0S
"167","study","do you think this one is an animal?",10,"BI2A00026","maybe NO",-0.3,31973,"p10",6.668493151,"15:00","set3","male","always","kind of looks like hay",NA,-1993y 0m -107d -18H 0M 0S
"168","study","do you think this one is an animal?",11,"BI2A00044","definitely NO",-1.5,3801,"p10",6.668493151,"15:00","set3","male","always","",NA,-1993y 0m -107d -18H 0M 0S
"169","study","do you think this one is an animal?",12,"BI2A00010","probably YES",0.9,10225,"p10",6.668493151,"15:00","set3","male","always","",NA,-1993y 0m -107d -18H 0M 0S
"170","study","do you think this one is an animal?",13,"BI2A00018","definitely NO",-1.5,10680,"p10",6.668493151,"15:00","set3","male","always","",NA,-1993y 0m -107d -18H 0M 0S
"171","study","do you think this one is an animal?",14,"BI2A00017","definitely NO",-1.5,6129,"p10",6.668493151,"15:00","set3","male","always","",NA,-1993y 0m -107d -18H 0M 0S
"172","study","do you think this one is an animal?",15,"BI2A00025","definitely NO",-1.5,5450,"p10",6.668493151,"15:00","set3","male","always","",NA,-1993y 0m -107d -18H 0M 0S
"173","study","do you think this one is an animal?",16,"BI2A00007","definitely YES",1.5,5318,"p10",6.668493151,"15:00","set3","male","always","",NA,-1993y 0m -107d -18H 0M 0S
"174","bonus","Do you think this one can think?",17,"BI2A00018","probably NO",-0.9,27021,"p10",6.668493151,"15:00","set3","male","always","if it's not an animal",NA,-1993y 0m -107d -18H 0M 0S
"175","bonus","Do you think this one has feelings?",18,"BI2A00044","definitely NO",-1.5,19611,"p10",6.668493151,"15:00","set3","male","always","",NA,-1993y 0m -107d -18H 0M 0S
"176","bonus","Do you think this can feel happy?",19,"BI2A00007","probably YES",0.9,17309,"p10",6.668493151,"15:00","set3","male","always","it's an animal so it can",NA,-1993y 0m -107d -18H 0M 0S
"177","bonus","Do you think this one can feel pain?",20,"BI2A00005","definitely YES",1.5,20302,"p10",6.668493151,"15:00","set3","male","always","if it's an animal",NA,-1993y 0m -107d -18H 0M 0S
"178","bonus","Do you think this one can see?",21,"BI2A00017","probably NO",-0.9,12303,"p10",6.668493151,"15:00","set3","male","always","",NA,-1993y 0m -107d -18H 0M 0S
"179","bonus","Do you think this one can feel hungry?",22,"BI2A00035","definitely NO",-1.5,10169,"p10",6.668493151,"15:00","set3","male","always","",NA,-1993y 0m -107d -18H 0M 0S
"180","practice",NA,1,"apple_1","skip",NA,11918,"p11",5.115068493,"15:15","set2","male",NA,"",NA,-1994y 0m -309d -12H 0M 0S
"181","practice",NA,2,"apple_2","skip",NA,4508,"p11",5.115068493,"15:15","set2","male",NA,"",NA,-1994y 0m -309d -12H 0M 0S
"182","practice",NA,3,"apple_3","skip",NA,3408,"p11",5.115068493,"15:15","set2","male",NA,"",NA,-1994y 0m -309d -12H 0M 0S
"183","practice",NA,4,"apple_1","skip",NA,11092,"p11",5.115068493,"15:15","set2","male",NA,"",NA,-1994y 0m -309d -12H 0M 0S
"184","study","do you think this one is an animal?",5,"BI2A00032","YES",NA,27410,"p11",5.115068493,"15:15","set2","male",NA,"",NA,-1994y 0m -309d -12H 0M 0S
"185","study","do you think this one is an animal?",6,"BI2A00034","YES",NA,17933,"p11",5.115068493,"15:15","set2","male",NA,"",NA,-1994y 0m -309d -12H 0M 0S
"186","study","do you think this one is an animal?",7,"BI2A00006","definitely YES",1.5,14619,"p11",5.115068493,"15:15","set2","male",NA,"",NA,-1994y 0m -309d -12H 0M 0S
"187","study","do you think this one is an animal?",8,"BI2A00038","maybe YES",0.3,27188,"p11",5.115068493,"15:15","set2","male",NA,"",NA,-1994y 0m -309d -12H 0M 0S
"188","study","do you think this one is an animal?",9,"BI2A00037","YES",NA,18202,"p11",5.115068493,"15:15","set2","male",NA,"looks like wood or tree",NA,-1994y 0m -309d -12H 0M 0S
"189","study","do you think this one is an animal?",10,"BI2A00045","NO",NA,33623,"p11",5.115068493,"15:15","set2","male",NA,"sheep",NA,-1994y 0m -309d -12H 0M 0S
"190","study","do you think this one is an animal?",11,"BI2A00004","YES",NA,15892,"p11",5.115068493,"15:15","set2","male",NA,"",NA,-1994y 0m -309d -12H 0M 0S
"191","study","do you think this one is an animal?",12,"BI2A00040","NO",NA,11471,"p11",5.115068493,"15:15","set2","male",NA,"hair of animal",NA,-1994y 0m -309d -12H 0M 0S
"192","study","do you think this one is an animal?",13,"BI2A00013","YES",NA,15879,"p11",5.115068493,"15:15","set2","male",NA,"floor",NA,-1994y 0m -309d -12H 0M 0S
"193","study","do you think this one is an animal?",14,"BI2A00016","YES",NA,27435,"p11",5.115068493,"15:15","set2","male",NA,"dog fur",NA,-1994y 0m -309d -12H 0M 0S
"194","study","do you think this one is an animal?",15,"BI2A00002","YES",NA,8024,"p11",5.115068493,"15:15","set2","male",NA,"camel",NA,-1994y 0m -309d -12H 0M 0S
"195","study","do you think this one is an animal?",16,"BI2A00041","NO",NA,18384,"p11",5.115068493,"15:15","set2","male",NA,"fur of zebras",NA,-1994y 0m -309d -12H 0M 0S
"196","bonus","Do you think this one can feel pain?",17,"BI2A00002","NO",NA,9639,"p11",5.115068493,"15:15","set2","male",NA,"a part of a wood of a ƒ",NA,-1994y 0m -309d -12H 0M 0S
"197","bonus","Do you think this one can feel hurt?",18,"BI2A00034","YES",NA,10109,"p11",5.115068493,"15:15","set2","male",NA,"",NA,-1994y 0m -309d -12H 0M 0S
"198","bonus","Do you think this one has feelings?",19,"BI2A00045","YES",NA,9727,"p11",5.115068493,"15:15","set2","male",NA,"",NA,-1994y 0m -309d -12H 0M 0S
"199","bonus","Do you think this one can think?",20,"BI2A00040","YES",NA,8128,"p11",5.115068493,"15:15","set2","male",NA,"",NA,-1994y 0m -309d -12H 0M 0S
"200","bonus","Do you think this can feel happy?",21,"BI2A00032","YES",NA,4710,"p11",5.115068493,"15:15","set2","male",NA,"",NA,-1994y 0m -309d -12H 0M 0S
"201","bonus","Do you think this one can feel hungry?",22,"BI2A00006","skip",NA,10987,"p11",5.115068493,"15:15","set2","male",NA,"maybe",NA,-1994y 0m -309d -12H 0M 0S
"202","practice",NA,1,"apple_1","skip",NA,13417,"p12",5.736986301,"16:45","set4","female",NA,"",NA,-1994y 0m -82d -12H 0M 0S
"203","practice",NA,2,"apple_2","skip",NA,4035,"p12",5.736986301,"16:45","set4","female",NA,"",NA,-1994y 0m -82d -12H 0M 0S
"204","practice",NA,3,"apple_3","skip",NA,2978,"p12",5.736986301,"16:45","set4","female",NA,"",NA,-1994y 0m -82d -12H 0M 0S
"205","practice",NA,4,"apple_1","skip",NA,11790,"p12",5.736986301,"16:45","set4","female",NA,"",NA,-1994y 0m -82d -12H 0M 0S
"206","study","do you think this one is an animal?",5,"BI2A00009","YES",NA,15903,"p12",5.736986301,"16:45","set4","female",NA,"",NA,-1994y 0m -82d -12H 0M 0S
"207","study","do you think this one is an animal?",6,"BI2A00039","NO",NA,30861,"p12",5.736986301,"16:45","set4","female",NA,"definitely st very hard",NA,-1994y 0m -82d -12H 0M 0S
"208","study","do you think this one is an animal?",7,"BI2A00048","NO",NA,15260,"p12",5.736986301,"16:45","set4","female",NA,"sweater",NA,-1994y 0m -82d -12H 0M 0S
"209","study","do you think this one is an animal?",8,"BI2A00001","YES",NA,11940,"p12",5.736986301,"16:45","set4","female",NA,"raccooon",NA,-1994y 0m -82d -12H 0M 0S
"210","study","do you think this one is an animal?",9,"BI2A00023","NO",NA,17932,"p12",5.736986301,"16:45","set4","female",NA,"yarn",NA,-1994y 0m -82d -12H 0M 0S
"211","study","do you think this one is an animal?",10,"BI2A00021","NO",NA,18930,"p12",5.736986301,"16:45","set4","female",NA,"bread",NA,-1994y 0m -82d -12H 0M 0S
"212","study","do you think this one is an animal?",11,"BI2A00029","NO",NA,14280,"p12",5.736986301,"16:45","set4","female",NA,"carpet",NA,-1994y 0m -82d -12H 0M 0S
"213","study","do you think this one is an animal?",12,"BI2A00011","YES",NA,11170,"p12",5.736986301,"16:45","set4","female",NA,"elephant",NA,-1994y 0m -82d -12H 0M 0S
"214","study","do you think this one is an animal?",13,"BI2A00012","definitely NO",-1.5,24615,"p12",5.736986301,"16:45","set4","female",NA,"lots of hair on it",NA,-1994y 0m -82d -12H 0M 0S
"215","study","do you think this one is an animal?",14,"BI2A00024","YES",NA,14562,"p12",5.736986301,"16:45","set4","female",NA,"porcupine",NA,-1994y 0m -82d -12H 0M 0S
"216","study","do you think this one is an animal?",15,"BI2A00042","definitely NO",-1.5,14215,"p12",5.736986301,"16:45","set4","female",NA,"water",NA,-1994y 0m -82d -12H 0M 0S
"217","study","do you think this one is an animal?",16,"BI2A00022","NO",NA,14316,"p12",5.736986301,"16:45","set4","female",NA,"not really",NA,-1994y 0m -82d -12H 0M 0S
"218","bonus","Do you think this can feel happy?",17,"BI2A00048","NO",NA,12507,"p12",5.736986301,"16:45","set4","female",NA,"because it",NA,-1994y 0m -82d -12H 0M 0S
"219","bonus","Do you think this one can feel hungry?",18,"BI2A00023","NO",NA,6066,"p12",5.736986301,"16:45","set4","female",NA,"",NA,-1994y 0m -82d -12H 0M 0S
"220","bonus","Do you think this one can sense things nearby?",19,"BI2A00009","YES",NA,11653,"p12",5.736986301,"16:45","set4","female",NA,"",NA,-1994y 0m -82d -12H 0M 0S
"221","bonus","Do you think this one can feel hurt?",20,"BI2A00022","skip",NA,23161,"p12",5.736986301,"16:45","set4","female",NA,"",NA,-1994y 0m -82d -12H 0M 0S
"222","bonus","Do you think this one has feelings?",21,"BI2A00039","NO",NA,7074,"p12",5.736986301,"16:45","set4","female",NA,"",NA,-1994y 0m -82d -12H 0M 0S
"223","bonus","Do you think this one can think?",22,"BI2A00011","YES",NA,8480,"p12",5.736986301,"16:45","set4","female",NA,"",NA,-1994y 0m -82d -12H 0M 0S
"224","practice",NA,1,"apple_1","skip",NA,12171,"p13",5.504109589,"14:28","set4","female",NA,"","SPOKE SPANISH WITH DAD",-1994y 0m -167d -12H 0M 0S
"225","practice",NA,2,"apple_2","skip",NA,5484,"p13",5.504109589,"14:28","set4","female",NA,"","SPOKE SPANISH WITH DAD",-1994y 0m -167d -12H 0M 0S
"226","practice",NA,3,"apple_3","skip",NA,2965,"p13",5.504109589,"14:28","set4","female",NA,"","SPOKE SPANISH WITH DAD",-1994y 0m -167d -12H 0M 0S
"227","practice",NA,4,"apple_1","skip",NA,12151,"p13",5.504109589,"14:28","set4","female",NA,"","SPOKE SPANISH WITH DAD",-1994y 0m -167d -12H 0M 0S
"228","study","do you think this one is an animal?",5,"BI2A00048","NO",NA,18341,"p13",5.504109589,"14:28","set4","female",NA,"","SPOKE SPANISH WITH DAD",-1994y 0m -167d -12H 0M 0S
"229","study","do you think this one is an animal?",6,"BI2A00039","maybe NO",-0.3,9283,"p13",5.504109589,"14:28","set4","female",NA,"","SPOKE SPANISH WITH DAD",-1994y 0m -167d -12H 0M 0S
"230","study","do you think this one is an animal?",7,"BI2A00022","definitely NO",-1.5,20879,"p13",5.504109589,"14:28","set4","female",NA,"rock","SPOKE SPANISH WITH DAD",-1994y 0m -167d -12H 0M 0S
"231","study","do you think this one is an animal?",8,"BI2A00024","definitely YES",1.5,21936,"p13",5.504109589,"14:28","set4","female",NA,"bear","SPOKE SPANISH WITH DAD",-1994y 0m -167d -12H 0M 0S
"232","study","do you think this one is an animal?",9,"BI2A00011","definitely YES",1.5,14263,"p13",5.504109589,"14:28","set4","female",NA,"elephant","SPOKE SPANISH WITH DAD",-1994y 0m -167d -12H 0M 0S
"233","study","do you think this one is an animal?",10,"BI2A00001","maybe YES",0.3,16511,"p13",5.504109589,"14:28","set4","female",NA,"raccooon","SPOKE SPANISH WITH DAD",-1994y 0m -167d -12H 0M 0S
"234","study","do you think this one is an animal?",11,"BI2A00009","maybe NO",-0.3,37689,"p13",5.504109589,"14:28","set4","female",NA,"looks like a monkey","SPOKE SPANISH WITH DAD",-1994y 0m -167d -12H 0M 0S
"235","study","do you think this one is an animal?",12,"BI2A00042","definitely NO",-1.5,15139,"p13",5.504109589,"14:28","set4","female",NA,"definitely water","SPOKE SPANISH WITH DAD",-1994y 0m -167d -12H 0M 0S
"236","study","do you think this one is an animal?",13,"BI2A00023","definitely NO",-1.5,20950,"p13",5.504109589,"14:28","set4","female",NA,"IDK","SPOKE SPANISH WITH DAD",-1994y 0m -167d -12H 0M 0S
"237","study","do you think this one is an animal?",14,"BI2A00029","maybe YES",0.3,15525,"p13",5.504109589,"14:28","set4","female",NA,"","SPOKE SPANISH WITH DAD",-1994y 0m -167d -12H 0M 0S
"238","study","do you think this one is an animal?",15,"BI2A00012","definitely NO",-1.5,23889,"p13",5.504109589,"14:28","set4","female",NA,"hard for me","SPOKE SPANISH WITH DAD",-1994y 0m -167d -12H 0M 0S
"239","study","do you think this one is an animal?",16,"BI2A00021","definitely NO",-1.5,10658,"p13",5.504109589,"14:28","set4","female",NA,"dirt","SPOKE SPANISH WITH DAD",-1994y 0m -167d -12H 0M 0S
"240","practice",NA,1,"apple_1","skip",NA,16860,"p14",7.021917808,"14:43","set1","male",NA,"","SPOKE SPANISH WITH DAD",-1992y 0m -344d 0H 0M 0S
"241","practice",NA,2,"apple_2","skip",NA,3402,"p14",7.021917808,"14:43","set1","male",NA,"","SPOKE SPANISH WITH DAD",-1992y 0m -344d 0H 0M 0S
"242","practice",NA,3,"apple_3","skip",NA,2253,"p14",7.021917808,"14:43","set1","male",NA,"","SPOKE SPANISH WITH DAD",-1992y 0m -344d 0H 0M 0S
"243","practice",NA,4,"apple_1","skip",NA,10515,"p14",7.021917808,"14:43","set1","male",NA,"","SPOKE SPANISH WITH DAD",-1992y 0m -344d 0H 0M 0S
"244","study","do you think this one is an animal?",5,"BI2A00003","definitely YES",1.5,29663,"p14",7.021917808,"14:43","set1","male",NA,"raccoon","SPOKE SPANISH WITH DAD",-1992y 0m -344d 0H 0M 0S
"245","study","do you think this one is an animal?",6,"BI2A00014","probably NO",-0.9,32607,"p14",7.021917808,"14:43","set1","male",NA,"hard","SPOKE SPANISH WITH DAD",-1992y 0m -344d 0H 0M 0S
"246","study","do you think this one is an animal?",7,"BI2A00043","definitely NO",-1.5,17671,"p14",7.021917808,"14:43","set1","male",NA,"water","SPOKE SPANISH WITH DAD",-1992y 0m -344d 0H 0M 0S
"247","study","do you think this one is an animal?",8,"BI2A00020","probably YES",0.9,43087,"p14",7.021917808,"14:43","set1","male",NA,"dog hair","SPOKE SPANISH WITH DAD",-1992y 0m -344d 0H 0M 0S
"248","study","do you think this one is an animal?",9,"BI2A00028","definitely NO",-1.5,31884,"p14",7.021917808,"14:43","set1","male",NA,"saw already, a trunk","SPOKE SPANISH WITH DAD",-1992y 0m -344d 0H 0M 0S
"249","study","do you think this one is an animal?",10,"BI2A00033","maybe NO",-0.3,30022,"p14",7.021917808,"14:43","set1","male",NA,"feathers","SPOKE SPANISH WITH DAD",-1992y 0m -344d 0H 0M 0S
"250","study","do you think this one is an animal?",11,"BI2A00031","definitely NO",-1.5,33192,"p14",7.021917808,"14:43","set1","male",NA,"rug - I have one that's exactly like that","SPOKE SPANISH WITH DAD",-1992y 0m -344d 0H 0M 0S
"251","study","do you think this one is an animal?",12,"BI2A00047","maybe NO",-0.3,26689,"p14",7.021917808,"14:43","set1","male",NA,"not animal","SPOKE SPANISH WITH DAD",-1992y 0m -344d 0H 0M 0S
"252","study","do you think this one is an animal?",13,"BI2A00030","maybe NO",-0.3,27103,"p14",7.021917808,"14:43","set1","male",NA,"blanket for sleeping, might be wrong","SPOKE SPANISH WITH DAD",-1992y 0m -344d 0H 0M 0S
"253","study","do you think this one is an animal?",14,"BI2A00008","definitely YES",1.5,19490,"p14",7.021917808,"14:43","set1","male",NA,"monkey","SPOKE SPANISH WITH DAD",-1992y 0m -344d 0H 0M 0S
"254","study","do you think this one is an animal?",15,"BI2A00046","definitely NO",-1.5,15285,"p14",7.021917808,"14:43","set1","male",NA,"basket","SPOKE SPANISH WITH DAD",-1992y 0m -344d 0H 0M 0S
"255","study","do you think this one is an animal?",16,"BI2A00015","probably YES",0.9,20356,"p14",7.021917808,"14:43","set1","male",NA,"fur cat","SPOKE SPANISH WITH DAD",-1992y 0m -344d 0H 0M 0S
"256","bonus","Do you think this one can sense things nearby?",17,"BI2A00043","NO",NA,12054,"p14",7.021917808,"14:43","set1","male",NA,"","SPOKE SPANISH WITH DAD",-1992y 0m -344d 0H 0M 0S
"257","bonus","Do you think this one can feel pain?",18,"BI2A00031","skip",NA,11573,"p14",7.021917808,"14:43","set1","male",NA,"not sure","SPOKE SPANISH WITH DAD",-1992y 0m -344d 0H 0M 0S
"258","bonus","Do you think this one can think?",19,"BI2A00046","NO",NA,8024,"p14",7.021917808,"14:43","set1","male",NA,"","SPOKE SPANISH WITH DAD",-1992y 0m -344d 0H 0M 0S
"259","bonus","Do you think this can feel happy?",20,"BI2A00020","NO",NA,9140,"p14",7.021917808,"14:43","set1","male",NA,"","SPOKE SPANISH WITH DAD",-1992y 0m -344d 0H 0M 0S
"260","bonus","Do you think this one can feel hungry?",21,"BI2A00008","YES",NA,14944,"p14",7.021917808,"14:43","set1","male",NA,"cuz I said monkey","SPOKE SPANISH WITH DAD",-1992y 0m -344d 0H 0M 0S
"261","bonus","Do you think this one has feelings?",22,"BI2A00003","NO",NA,14849,"p14",7.021917808,"14:43","set1","male",NA,"","SPOKE SPANISH WITH DAD",-1992y 0m -344d 0H 0M 0S
"262","practice",NA,1,"apple_1","skip",NA,11144,"p15",5.460273973,"14:56","set1","male",NA,NA,NA,-1994y 0m -183d -12H 0M 0S
"263","practice",NA,2,"apple_2","skip",NA,3383,"p15",5.460273973,"14:56","set1","male",NA,NA,NA,-1994y 0m -183d -12H 0M 0S
"264","practice",NA,3,"apple_3","skip",NA,3255,"p15",5.460273973,"14:56","set1","male",NA,NA,NA,-1994y 0m -183d -12H 0M 0S
"265","practice",NA,4,"apple_1","skip",NA,11251,"p15",5.460273973,"14:56","set1","male",NA,NA,NA,-1994y 0m -183d -12H 0M 0S
"266","study","do you think this one is an animal?",5,"BI2A00028","maybe YES",0.3,12521,"p15",5.460273973,"14:56","set1","male",NA,NA,NA,-1994y 0m -183d -12H 0M 0S
"267","study","do you think this one is an animal?",6,"BI2A00043","maybe NO",-0.3,10852,"p15",5.460273973,"14:56","set1","male",NA,NA,NA,-1994y 0m -183d -12H 0M 0S
"268","study","do you think this one is an animal?",7,"BI2A00030","maybe NO",-0.3,9439,"p15",5.460273973,"14:56","set1","male",NA,NA,NA,-1994y 0m -183d -12H 0M 0S
"269","study","do you think this one is an animal?",8,"BI2A00046","maybe NO",-0.3,6304,"p15",5.460273973,"14:56","set1","male",NA,NA,NA,-1994y 0m -183d -12H 0M 0S
"270","study","do you think this one is an animal?",9,"BI2A00015","maybe YES",0.3,8341,"p15",5.460273973,"14:56","set1","male",NA,NA,NA,-1994y 0m -183d -12H 0M 0S
"271","study","do you think this one is an animal?",10,"BI2A00014","maybe YES",0.3,6268,"p15",5.460273973,"14:56","set1","male",NA,NA,NA,-1994y 0m -183d -12H 0M 0S
"272","study","do you think this one is an animal?",11,"BI2A00020","definitely YES",1.5,6236,"p15",5.460273973,"14:56","set1","male",NA,NA,NA,-1994y 0m -183d -12H 0M 0S
"273","study","do you think this one is an animal?",12,"BI2A00003","definitely YES",1.5,9303,"p15",5.460273973,"14:56","set1","male",NA,NA,NA,-1994y 0m -183d -12H 0M 0S
"274","study","do you think this one is an animal?",13,"BI2A00033","maybe NO",-0.3,6378,"p15",5.460273973,"14:56","set1","male",NA,NA,NA,-1994y 0m -183d -12H 0M 0S
"275","study","do you think this one is an animal?",14,"BI2A00008","definitely YES",1.5,5984,"p15",5.460273973,"14:56","set1","male",NA,NA,NA,-1994y 0m -183d -12H 0M 0S
"276","study","do you think this one is an animal?",15,"BI2A00031","definitely NO",-1.5,7611,"p15",5.460273973,"14:56","set1","male",NA,NA,NA,-1994y 0m -183d -12H 0M 0S
"277","study","do you think this one is an animal?",16,"BI2A00047","maybe YES",0.3,7237,"p15",5.460273973,"14:56","set1","male",NA,NA,NA,-1994y 0m -183d -12H 0M 0S
"278","bonus","Do you think this one can feel hungry?",17,"BI2A00003","maybe YES",0.3,28062,"p15",5.460273973,"14:56","set1","male",NA,NA,NA,-1994y 0m -183d -12H 0M 0S
"279","bonus","Do you think this one can think?",18,"BI2A00020","maybe NO",-0.3,14461,"p15",5.460273973,"14:56","set1","male",NA,NA,NA,-1994y 0m -183d -12H 0M 0S
"280","bonus","Do you think this one can feel hurt?",19,"BI2A00043","YES",NA,6771,"p15",5.460273973,"14:56","set1","male",NA,NA,NA,-1994y 0m -183d -12H 0M 0S
"281","bonus","Do you think this one has feelings?",20,"BI2A00008","NO",NA,10545,"p15",5.460273973,"14:56","set1","male",NA,NA,NA,-1994y 0m -183d -12H 0M 0S
"282","bonus","Do you think this can feel happy?",21,"BI2A00031","YES",NA,8488,"p15",5.460273973,"14:56","set1","male",NA,NA,NA,-1994y 0m -183d -12H 0M 0S
"283","bonus","Do you think this one can sense things nearby?",22,"BI2A00046","YES",NA,7436,"p15",5.460273973,"14:56","set1","male",NA,NA,NA,-1994y 0m -183d -12H 0M 0S
"284","practice",NA,1,"apple_1","skip",NA,11916,"p17",6.619178082,"15:19","set3","female",NA,"",NA,-1993y 0m -125d -18H 0M 0S
"285","practice",NA,2,"apple_2","skip",NA,4764,"p17",6.619178082,"15:19","set3","female",NA,"",NA,-1993y 0m -125d -18H 0M 0S
"286","practice",NA,3,"apple_3","skip",NA,2726,"p17",6.619178082,"15:19","set3","female",NA,"",NA,-1993y 0m -125d -18H 0M 0S
"287","practice",NA,4,"apple_1","skip",NA,10668,"p17",6.619178082,"15:19","set3","female",NA,"",NA,-1993y 0m -125d -18H 0M 0S
"288","study","do you think this one is an animal?",5,"BI2A00018","definitely YES",1.5,17341,"p17",6.619178082,"15:19","set3","female",NA,"",NA,-1993y 0m -125d -18H 0M 0S
"289","study","do you think this one is an animal?",6,"BI2A00027","maybe NO",-0.3,30409,"p17",6.619178082,"15:19","set3","female",NA,"",NA,-1993y 0m -125d -18H 0M 0S
"290","study","do you think this one is an animal?",7,"BI2A00019","definitely YES",1.5,7971,"p17",6.619178082,"15:19","set3","female",NA,"",NA,-1993y 0m -125d -18H 0M 0S
"291","study","do you think this one is an animal?",8,"BI2A00005","definitely YES",1.5,4285,"p17",6.619178082,"15:19","set3","female",NA,"",NA,-1993y 0m -125d -18H 0M 0S
"292","study","do you think this one is an animal?",9,"BI2A00007","definitely YES",1.5,3910,"p17",6.619178082,"15:19","set3","female",NA,"",NA,-1993y 0m -125d -18H 0M 0S
"293","study","do you think this one is an animal?",10,"BI2A00017","definitely YES",1.5,4918,"p17",6.619178082,"15:19","set3","female",NA,"",NA,-1993y 0m -125d -18H 0M 0S
"294","study","do you think this one is an animal?",11,"BI2A00035","maybe NO",-0.3,12925,"p17",6.619178082,"15:19","set3","female",NA,"",NA,-1993y 0m -125d -18H 0M 0S
"295","study","do you think this one is an animal?",12,"BI2A00026","definitely YES",1.5,15340,"p17",6.619178082,"15:19","set3","female",NA,"",NA,-1993y 0m -125d -18H 0M 0S
"296","study","do you think this one is an animal?",13,"BI2A00025","maybe YES",0.3,7642,"p17",6.619178082,"15:19","set3","female",NA,"",NA,-1993y 0m -125d -18H 0M 0S
"297","study","do you think this one is an animal?",14,"BI2A00036","definitely YES",1.5,46843,"p17",6.619178082,"15:19","set3","female",NA,"rug",NA,-1993y 0m -125d -18H 0M 0S
"298","study","do you think this one is an animal?",15,"BI2A00010","probably YES",0.9,24334,"p17",6.619178082,"15:19","set3","female",NA,"dog",NA,-1993y 0m -125d -18H 0M 0S
"299","study","do you think this one is an animal?",16,"BI2A00044","definitely NO",-1.5,14928,"p17",6.619178082,"15:19","set3","female",NA,"",NA,-1993y 0m -125d -18H 0M 0S
"300","bonus","Do you think this one can think?",17,"BI2A00035","NO",NA,19480,"p17",6.619178082,"15:19","set3","female",NA,"paper",NA,-1993y 0m -125d -18H 0M 0S
"301","bonus","Do you think this one can sense things nearby?",18,"BI2A00044","NO",NA,6469,"p17",6.619178082,"15:19","set3","female",NA,"",NA,-1993y 0m -125d -18H 0M 0S
"302","bonus","Do you think this one has feelings?",19,"BI2A00007","YES",NA,5930,"p17",6.619178082,"15:19","set3","female",NA,"",NA,-1993y 0m -125d -18H 0M 0S
"303","bonus","Do you think this one can feel pain?",20,"BI2A00005","YES",NA,6860,"p17",6.619178082,"15:19","set3","female",NA,"",NA,-1993y 0m -125d -18H 0M 0S
"304","bonus","Do you think this can feel happy?",21,"BI2A00018","maybe YES",0.3,17635,"p17",6.619178082,"15:19","set3","female",NA,"",NA,-1993y 0m -125d -18H 0M 0S
"305","bonus","Do you think this one can feel hungry?",22,"BI2A00017","YES",NA,6808,"p17",6.619178082,"15:19","set3","female",NA,"",NA,-1993y 0m -125d -18H 0M 0S
"306","practice",NA,1,"apple_1","skip",NA,13842,"p18",5.342465753,"15:44","set4","male","often","",NA,-1994y 0m -226d -12H 0M 0S
"307","practice",NA,2,"apple_2","skip",NA,3388,"p18",5.342465753,"15:44","set4","male","often","",NA,-1994y 0m -226d -12H 0M 0S
"308","practice",NA,3,"apple_3","skip",NA,3393,"p18",5.342465753,"15:44","set4","male","often","",NA,-1994y 0m -226d -12H 0M 0S
"309","practice",NA,4,"apple_1","skip",NA,11068,"p18",5.342465753,"15:44","set4","male","often","",NA,-1994y 0m -226d -12H 0M 0S
"310","study","do you think this one is an animal?",5,"BI2A00042","maybe NO",-0.3,17162,"p18",5.342465753,"15:44","set4","male","often","",NA,-1994y 0m -226d -12H 0M 0S
"311","study","do you think this one is an animal?",6,"BI2A00029","maybe NO",-0.3,12335,"p18",5.342465753,"15:44","set4","male","often","",NA,-1994y 0m -226d -12H 0M 0S
"312","study","do you think this one is an animal?",7,"BI2A00022","maybe YES",0.3,12792,"p18",5.342465753,"15:44","set4","male","often","",NA,-1994y 0m -226d -12H 0M 0S
"313","study","do you think this one is an animal?",8,"BI2A00024","probably YES",0.9,16133,"p18",5.342465753,"15:44","set4","male","often","porcupine",NA,-1994y 0m -226d -12H 0M 0S
"314","study","do you think this one is an animal?",9,"BI2A00012","maybe YES",0.3,11909,"p18",5.342465753,"15:44","set4","male","often","",NA,-1994y 0m -226d -12H 0M 0S
"315","study","do you think this one is an animal?",10,"BI2A00039","probably NO",-0.9,9413,"p18",5.342465753,"15:44","set4","male","often","",NA,-1994y 0m -226d -12H 0M 0S
"316","study","do you think this one is an animal?",11,"BI2A00021","probably NO",-0.9,5207,"p18",5.342465753,"15:44","set4","male","often","",NA,-1994y 0m -226d -12H 0M 0S
"317","study","do you think this one is an animal?",12,"BI2A00011","probably YES",0.9,6849,"p18",5.342465753,"15:44","set4","male","often","",NA,-1994y 0m -226d -12H 0M 0S
"318","study","do you think this one is an animal?",13,"BI2A00048","probably NO",-0.9,9590,"p18",5.342465753,"15:44","set4","male","often","",NA,-1994y 0m -226d -12H 0M 0S
"319","study","do you think this one is an animal?",14,"BI2A00023","maybe YES",0.3,8137,"p18",5.342465753,"15:44","set4","male","often","",NA,-1994y 0m -226d -12H 0M 0S
"320","study","do you think this one is an animal?",15,"BI2A00001","probably YES",0.9,7563,"p18",5.342465753,"15:44","set4","male","often","",NA,-1994y 0m -226d -12H 0M 0S
"321","study","do you think this one is an animal?",16,"BI2A00009","probably YES",0.9,7710,"p18",5.342465753,"15:44","set4","male","often","",NA,-1994y 0m -226d -12H 0M 0S
"322","bonus","Do you think this one can feel pain?",17,"BI2A00048","maybe NO",-0.3,13445,"p18",5.342465753,"15:44","set4","male","often","",NA,-1994y 0m -226d -12H 0M 0S
"323","bonus","Do you think this one has feelings?",18,"BI2A00023","probably NO",-0.9,9357,"p18",5.342465753,"15:44","set4","male","often","",NA,-1994y 0m -226d -12H 0M 0S
"324","bonus","Do you think this can feel happy?",19,"BI2A00011","probably YES",0.9,9590,"p18",5.342465753,"15:44","set4","male","often","",NA,-1994y 0m -226d -12H 0M 0S
"325","bonus","Do you think this one can sense things nearby?",20,"BI2A00022","probably NO",-0.9,10901,"p18",5.342465753,"15:44","set4","male","often","",NA,-1994y 0m -226d -12H 0M 0S
"326","bonus","Do you think this one can feel hungry?",21,"BI2A00039","probably NO",-0.9,8564,"p18",5.342465753,"15:44","set4","male","often","",NA,-1994y 0m -226d -12H 0M 0S
"327","bonus","Do you think this one can think?",22,"BI2A00009","probably NO",-0.9,5471,"p18",5.342465753,"15:44","set4","male","often","",NA,-1994y 0m -226d -12H 0M 0S
"328","practice",NA,-3,"apple_1","skip",NA,13318,"J01",NA,"13:29","set1",NA,NA,NA,NA,NA
"329","practice",NA,-2,"apple_2","skip",NA,7187,"J01",NA,"13:29","set1",NA,NA,NA,NA,NA
"330","practice",NA,-1,"apple_3","skip",NA,4553,"J01",NA,"13:29","set1",NA,NA,NA,NA,NA
"331","practice",NA,0,"apple_1","skip",NA,14410,"J01",NA,"13:29","set1",NA,NA,NA,NA,NA
"332","study","Do you think this one is an animal?",1,"BI2A00020","definitely YES",1.5,26131,"J01",NA,"13:29","set1",NA,NA,NA,NA,NA
"333","study","Do you think this one is an animal?",2,"BI2A00043","definitely NO",-1.5,21675,"J01",NA,"13:29","set1",NA,NA,NA,NA,NA
"334","study","Do you think this one is an animal?",3,"BI2A00028","definitely NO",-1.5,18092,"J01",NA,"13:29","set1",NA,NA,NA,NA,NA
"335","study","Do you think this one is an animal?",4,"BI2A00047","definitely NO",-1.5,30191,"J01",NA,"13:29","set1",NA,NA,NA,NA,NA
"336","study","Do you think this one is an animal?",5,"BI2A00033","definitely NO",-1.5,29271,"J01",NA,"13:29","set1",NA,NA,NA,NA,NA
"337","study","Do you think this one is an animal?",6,"BI2A00014","definitely YES",1.5,52277,"J01",NA,"13:29","set1",NA,NA,NA,NA,NA
"338","study","Do you think this one is an animal?",7,"BI2A00015","definitely NO",-1.5,31084,"J01",NA,"13:29","set1",NA,NA,NA,NA,NA
"339","study","Do you think this one is an animal?",8,"BI2A00008","definitely YES",1.5,34873,"J01",NA,"13:29","set1",NA,NA,NA,NA,NA
"340","study","Do you think this one is an animal?",9,"BI2A00030","definitely NO",-1.5,39366,"J01",NA,"13:29","set1",NA,NA,NA,NA,NA
"341","study","Do you think this one is an animal?",10,"BI2A00003","definitely YES",1.5,39930,"J01",NA,"13:29","set1",NA,NA,NA,NA,NA
"342","study","Do you think this one is an animal?",11,"BI2A00031","definitely NO",-1.5,33559,"J01",NA,"13:29","set1",NA,NA,NA,NA,NA
"343","study","Do you think this one is an animal?",12,"BI2A00046","definitely NO",-1.5,44530,"J01",NA,"13:29","set1",NA,NA,NA,NA,NA
"344","practice",NA,-3,"apple_1","skip",NA,9540,"J02",NA,"14:31","set2",NA,NA,NA,NA,NA
"345","practice",NA,-2,"apple_2","skip",NA,4469,"J02",NA,"14:31","set2",NA,NA,NA,NA,NA
"346","practice",NA,-1,"apple_3","skip",NA,4605,"J02",NA,"14:31","set2",NA,NA,NA,NA,NA
"347","practice",NA,0,"apple_1","skip",NA,11511,"J02",NA,"14:31","set2",NA,NA,NA,NA,NA
"348","study","Do you think this one is an animal?",1,"BI2A00034","definitely NO",-1.5,16275,"J02",NA,"14:31","set2",NA,NA,NA,NA,NA
"349","study","Do you think this one is an animal?",2,"BI2A00004","definitely YES",1.5,21259,"J02",NA,"14:31","set2",NA,NA,NA,NA,NA
"350","study","Do you think this one is an animal?",3,"BI2A00006","definitely YES",1.5,45762,"J02",NA,"14:31","set2",NA,NA,NA,NA,NA
"351","study","Do you think this one is an animal?",4,"BI2A00032","maybe NO",-0.5,18102,"J02",NA,"14:31","set2",NA,NA,NA,NA,NA
"352","study","Do you think this one is an animal?",5,"BI2A00002","definitely YES",1.5,24913,"J02",NA,"14:31","set2",NA,NA,NA,NA,NA
"353","study","Do you think this one is an animal?",6,"BI2A00013","definitely NO",-1.5,34045,"J02",NA,"14:31","set2",NA,NA,NA,NA,NA
"354","study","Do you think this one is an animal?",7,"BI2A00045","maybe NO",-0.5,19014,"J02",NA,"14:31","set2",NA,NA,NA,NA,NA
"355","study","Do you think this one is an animal?",8,"BI2A00041","definitely NO",-1.5,15228,"J02",NA,"14:31","set2",NA,NA,NA,NA,NA
"356","study","Do you think this one is an animal?",9,"BI2A00037","definitely NO",-1.5,13753,"J02",NA,"14:31","set2",NA,NA,NA,NA,NA
"357","study","Do you think this one is an animal?",10,"BI2A00016","definitely NO",-1.5,15929,"J02",NA,"14:31","set2",NA,NA,NA,NA,NA
"358","study","Do you think this one is an animal?",11,"BI2A00040","definitely NO",-1.5,36181,"J02",NA,"14:31","set2",NA,NA,NA,NA,NA
"359","study","Do you think this one is an animal?",12,"BI2A00038","definitely NO",-1.5,13953,"J02",NA,"14:31","set2",NA,NA,NA,NA,NA
"360","practice",NA,-3,"apple_1","skip",NA,22343,"J03",NA,"13:47","set3",NA,NA,NA,NA,NA
"361","practice",NA,-2,"apple_2","skip",NA,4268,"J03",NA,"13:47","set3",NA,NA,NA,NA,NA
"362","practice",NA,-1,"apple_3","skip",NA,2733,"J03",NA,"13:47","set3",NA,NA,NA,NA,NA
"363","practice",NA,0,"apple_1","skip",NA,13300,"J03",NA,"13:47","set3",NA,NA,NA,NA,NA
"364","study","Do you think this one is an animal?",1,"BI2A00035","definitely NO",-1.5,30342,"J03",NA,"13:47","set3",NA,NA,NA,NA,NA
"365","study","Do you think this one is an animal?",2,"BI2A00010","definitely YES",1.5,19211,"J03",NA,"13:47","set3",NA,NA,NA,NA,NA
"366","study","Do you think this one is an animal?",3,"BI2A00007","maybe YES",0.5,18489,"J03",NA,"13:47","set3",NA,NA,NA,NA,NA
"367","study","Do you think this one is an animal?",4,"BI2A00018","maybe NO",-0.5,17320,"J03",NA,"13:47","set3",NA,NA,NA,NA,NA
"368","study","Do you think this one is an animal?",5,"BI2A00025","maybe YES",0.5,33061,"J03",NA,"13:47","set3",NA,NA,NA,NA,NA
"369","study","Do you think this one is an animal?",6,"BI2A00044","definitely NO",-1.5,16413,"J03",NA,"13:47","set3",NA,NA,NA,NA,NA
"370","study","Do you think this one is an animal?",7,"BI2A00026","maybe YES",0.5,23113,"J03",NA,"13:47","set3",NA,NA,NA,NA,NA
"371","study","Do you think this one is an animal?",8,"BI2A00005","definitely YES",1.5,22207,"J03",NA,"13:47","set3",NA,NA,NA,NA,NA
"372","study","Do you think this one is an animal?",9,"BI2A00019","definitely NO",-1.5,14551,"J03",NA,"13:47","set3",NA,NA,NA,NA,NA
"373","study","Do you think this one is an animal?",10,"BI2A00036","definitely YES",1.5,19054,"J03",NA,"13:47","set3",NA,NA,NA,NA,NA
"374","study","Do you think this one is an animal?",11,"BI2A00017","definitely NO",-1.5,13587,"J03",NA,"13:47","set3",NA,NA,NA,NA,NA
"375","study","Do you think this one is an animal?",12,"BI2A00027","maybe YES",0.5,18198,"J03",NA,"13:47","set3",NA,NA,NA,NA,NA
"376","practice",NA,-3,"apple_1","skip",NA,12200,"J04",NA,"15:26","set3",NA,NA,NA,NA,NA
"377","practice",NA,-2,"apple_2","skip",NA,6558,"J04",NA,"15:26","set3",NA,NA,NA,NA,NA
"378","practice",NA,-1,"apple_3","skip",NA,1984,"J04",NA,"15:26","set3",NA,NA,NA,NA,NA
"379","practice",NA,0,"apple_1","skip",NA,12715,"J04",NA,"15:26","set3",NA,NA,NA,NA,NA
"380","study","Do you think this one is an animal?",1,"BI2A00044","maybe NO",-0.5,27895,"J04",NA,"15:26","set3",NA,NA,NA,NA,NA
"381","study","Do you think this one is an animal?",2,"BI2A00027","maybe YES",0.5,55240,"J04",NA,"15:26","set3",NA,NA,NA,NA,NA
"382","study","Do you think this one is an animal?",3,"BI2A00036","definitely NO",-1.5,24472,"J04",NA,"15:26","set3",NA,NA,NA,NA,NA
"383","study","Do you think this one is an animal?",4,"BI2A00010","definitely YES",1.5,28239,"J04",NA,"15:26","set3",NA,NA,NA,NA,NA
"384","study","Do you think this one is an animal?",5,"BI2A00017","definitely NO",-1.5,33601,"J04",NA,"15:26","set3",NA,NA,NA,NA,NA
"385","study","Do you think this one is an animal?",6,"BI2A00007","definitely YES",1.5,17480,"J04",NA,"15:26","set3",NA,NA,NA,NA,NA
"386","study","Do you think this one is an animal?",7,"BI2A00018","definitely YES",1.5,47554,"J04",NA,"15:26","set3",NA,NA,NA,NA,NA
"387","study","Do you think this one is an animal?",8,"BI2A00035","definitely NO",-1.5,18136,"J04",NA,"15:26","set3",NA,NA,NA,NA,NA
"388","study","Do you think this one is an animal?",9,"BI2A00019","definitely YES",1.5,27718,"J04",NA,"15:26","set3",NA,NA,NA,NA,NA
"389","study","Do you think this one is an animal?",10,"BI2A00026","definitely YES",1.5,23644,"J04",NA,"15:26","set3",NA,NA,NA,NA,NA
"390","study","Do you think this one is an animal?",11,"BI2A00025","definitely NO",-1.5,40720,"J04",NA,"15:26","set3",NA,NA,NA,NA,NA
"391","study","Do you think this one is an animal?",12,"BI2A00005","definitely YES",1.5,13949,"J04",NA,"15:26","set3",NA,NA,NA,NA,NA
"392","practice",NA,-3,"apple_1","skip",NA,18353,"J05",NA,"13:53","set3",NA,NA,NA,NA,NA
"393","practice",NA,-2,"apple_2","skip",NA,7809,"J05",NA,"13:53","set3",NA,NA,NA,NA,NA
"394","practice",NA,-1,"apple_3","skip",NA,5886,"J05",NA,"13:53","set3",NA,NA,NA,NA,NA
"395","practice",NA,0,"apple_1","skip",NA,31253,"J05",NA,"13:53","set3",NA,NA,NA,NA,NA
"396","study","Do you think this one is an animal?",1,"BI2A00005","definitely YES",1.5,37371,"J05",NA,"13:53","set3",NA,NA,NA,NA,NA
"397","study","Do you think this one is an animal?",2,"BI2A00018","definitely YES",1.5,43971,"J05",NA,"13:53","set3",NA,NA,NA,NA,NA
"398","study","Do you think this one is an animal?",3,"BI2A00007","maybe YES",0.5,15548,"J05",NA,"13:53","set3",NA,NA,NA,NA,NA
"399","study","Do you think this one is an animal?",4,"BI2A00044","definitely YES",1.5,32321,"J05",NA,"13:53","set3",NA,NA,NA,NA,NA
"400","study","Do you think this one is an animal?",5,"BI2A00017","maybe YES",0.5,18937,"J05",NA,"13:53","set3",NA,NA,NA,NA,NA
"401","study","Do you think this one is an animal?",6,"BI2A00025","definitely NO",-1.5,16139,"J05",NA,"13:53","set3",NA,NA,NA,NA,NA
"402","study","Do you think this one is an animal?",7,"BI2A00035","definitely NO",-1.5,14890,"J05",NA,"13:53","set3",NA,NA,NA,NA,NA
"403","study","Do you think this one is an animal?",8,"BI2A00036","definitely YES",1.5,14115,"J05",NA,"13:53","set3",NA,NA,NA,NA,NA
"404","study","Do you think this one is an animal?",9,"BI2A00019","definitely YES",1.5,15727,"J05",NA,"13:53","set3",NA,NA,NA,NA,NA
"405","study","Do you think this one is an animal?",10,"BI2A00010","definitely YES",1.5,24137,"J05",NA,"13:53","set3",NA,NA,NA,NA,NA
"406","study","Do you think this one is an animal?",11,"BI2A00026","definitely YES",1.5,37551,"J05",NA,"13:53","set3",NA,NA,NA,NA,NA
"407","study","Do you think this one is an animal?",12,"BI2A00027","maybe YES",0.5,29955,"J05",NA,"13:53","set3",NA,NA,NA,NA,NA
"408","practice",NA,-3,"apple_1","skip",NA,10818,"J06",NA,"14:35","set1",NA,NA,NA,NA,NA
"409","practice",NA,-2,"apple_2","skip",NA,4361,"J06",NA,"14:35","set1",NA,NA,NA,NA,NA
"410","practice",NA,-1,"apple_3","skip",NA,3497,"J06",NA,"14:35","set1",NA,NA,NA,NA,NA
"411","practice",NA,0,"apple_1","skip",NA,12122,"J06",NA,"14:35","set1",NA,NA,NA,NA,NA
"412","study","Do you think this one is an animal?",1,"BI2A00033","definitely NO",-1.5,30605,"J06",NA,"14:35","set1",NA,NA,NA,NA,NA
"413","study","Do you think this one is an animal?",2,"BI2A00047","maybe YES",0.5,14794,"J06",NA,"14:35","set1",NA,NA,NA,NA,NA
"414","study","Do you think this one is an animal?",3,"BI2A00008","maybe YES",0.5,34473,"J06",NA,"14:35","set1",NA,NA,NA,NA,NA
"415","study","Do you think this one is an animal?",4,"BI2A00031","definitely NO",-1.5,21617,"J06",NA,"14:35","set1",NA,NA,NA,NA,NA
"416","study","Do you think this one is an animal?",5,"BI2A00028","definitely NO",-1.5,50230,"J06",NA,"14:35","set1",NA,NA,NA,NA,NA
"417","study","Do you think this one is an animal?",6,"BI2A00015","definitely YES",1.5,27177,"J06",NA,"14:35","set1",NA,NA,NA,NA,NA
"418","study","Do you think this one is an animal?",7,"BI2A00003","definitely NO",-1.5,28141,"J06",NA,"14:35","set1",NA,NA,NA,NA,NA
"419","study","Do you think this one is an animal?",8,"BI2A00046","definitely NO",-1.5,30252,"J06",NA,"14:35","set1",NA,NA,NA,NA,NA
"420","study","Do you think this one is an animal?",9,"BI2A00043","definitely NO",-1.5,20549,"J06",NA,"14:35","set1",NA,NA,NA,NA,NA
"421","study","Do you think this one is an animal?",10,"BI2A00020","maybe NO",-0.5,33909,"J06",NA,"14:35","set1",NA,NA,NA,NA,NA
"422","study","Do you think this one is an animal?",11,"BI2A00030","maybe NO",-0.5,37561,"J06",NA,"14:35","set1",NA,NA,NA,NA,NA
"423","study","Do you think this one is an animal?",12,"BI2A00014","definitely NO",-1.5,24638,"J06",NA,"14:35","set1",NA,NA,NA,NA,NA
"424","practice",NA,-3,"apple_1","skip",NA,11645,"J07",NA,"15:33","set2",NA,NA,NA,NA,NA
"425","practice",NA,-2,"apple_2","skip",NA,7721,"J07",NA,"15:33","set2",NA,NA,NA,NA,NA
"426","practice",NA,-1,"apple_3","skip",NA,9375,"J07",NA,"15:33","set2",NA,NA,NA,NA,NA
"427","practice",NA,0,"apple_1","skip",NA,11658,"J07",NA,"15:33","set2",NA,NA,NA,NA,NA
"428","study","Do you think this one is an animal?",1,"BI2A00040","definitely YES",1.5,61948,"J07",NA,"15:33","set2",NA,NA,NA,NA,NA
"429","study","Do you think this one is an animal?",2,"BI2A00037","maybe NO",-0.5,52784,"J07",NA,"15:33","set2",NA,NA,NA,NA,NA
"430","study","Do you think this one is an animal?",3,"BI2A00006","definitely YES",1.5,53772,"J07",NA,"15:33","set2",NA,NA,NA,NA,NA
"431","study","Do you think this one is an animal?",4,"BI2A00041","definitely NO",-1.5,31331,"J07",NA,"15:33","set2",NA,NA,NA,NA,NA
"432","study","Do you think this one is an animal?",5,"BI2A00016","definitely YES",1.5,21310,"J07",NA,"15:33","set2",NA,NA,NA,NA,NA
"433","study","Do you think this one is an animal?",6,"BI2A00045","maybe NO",-0.5,18711,"J07",NA,"15:33","set2",NA,NA,NA,NA,NA
"434","study","Do you think this one is an animal?",7,"BI2A00034","definitely NO",-1.5,43730,"J07",NA,"15:33","set2",NA,NA,NA,NA,NA
"435","study","Do you think this one is an animal?",8,"BI2A00038","maybe NO",-0.5,18957,"J07",NA,"15:33","set2",NA,NA,NA,NA,NA
"436","study","Do you think this one is an animal?",9,"BI2A00004","definitely NO",-1.5,33833,"J07",NA,"15:33","set2",NA,NA,NA,NA,NA
"437","study","Do you think this one is an animal?",10,"BI2A00013","definitely NO",-1.5,31370,"J07",NA,"15:33","set2",NA,NA,NA,NA,NA
"438","study","Do you think this one is an animal?",11,"BI2A00002","definitely NO",-1.5,20889,"J07",NA,"15:33","set2",NA,NA,NA,NA,NA
"439","study","Do you think this one is an animal?",12,"BI2A00032","definitely NO",-1.5,27480,"J07",NA,"15:33","set2",NA,NA,NA,NA,NA
"440","practice",NA,-3,"apple_1","skip",NA,10600,"J08",NA,"13:35","set1",NA,NA,NA,NA,NA
"441","practice",NA,-2,"apple_2","skip",NA,4184,"J08",NA,"13:35","set1",NA,NA,NA,NA,NA
"442","practice",NA,-1,"apple_3","skip",NA,2811,"J08",NA,"13:35","set1",NA,NA,NA,NA,NA
"443","practice",NA,0,"apple_1","skip",NA,13896,"J08",NA,"13:35","set1",NA,NA,NA,NA,NA
"444","study","Do you think this one is an animal?",1,"BI2A00014","definitely YES",1.5,19308,"J08",NA,"13:35","set1",NA,NA,NA,NA,NA
"445","study","Do you think this one is an animal?",2,"BI2A00020","skip",NA,28598,"J08",NA,"13:35","set1",NA,NA,NA,NA,NA
"446","study","Do you think this one is an animal?",3,"BI2A00043","maybe YES",0.5,22240,"J08",NA,"13:35","set1",NA,NA,NA,NA,NA
"447","study","Do you think this one is an animal?",4,"BI2A00046","definitely YES",1.5,18594,"J08",NA,"13:35","set1",NA,NA,NA,NA,NA
"448","study","Do you think this one is an animal?",5,"BI2A00047","maybe YES",0.5,11774,"J08",NA,"13:35","set1",NA,NA,NA,NA,NA
"449","study","Do you think this one is an animal?",6,"BI2A00003","definitely NO",-1.5,14279,"J08",NA,"13:35","set1",NA,NA,NA,NA,NA
"450","study","Do you think this one is an animal?",7,"BI2A00033","definitely NO",-1.5,18291,"J08",NA,"13:35","set1",NA,NA,NA,NA,NA
"451","study","Do you think this one is an animal?",8,"BI2A00015","maybe YES",0.5,13327,"J08",NA,"13:35","set1",NA,NA,NA,NA,NA
"452","study","Do you think this one is an animal?",9,"BI2A00030","definitely YES",1.5,20499,"J08",NA,"13:35","set1",NA,NA,NA,NA,NA
"453","study","Do you think this one is an animal?",10,"BI2A00008","definitely NO",-1.5,18498,"J08",NA,"13:35","set1",NA,NA,NA,NA,NA
"454","study","Do you think this one is an animal?",11,"BI2A00031","definitely NO",-1.5,20302,"J08",NA,"13:35","set1",NA,NA,NA,NA,NA
"455","study","Do you think this one is an animal?",12,"BI2A00028","maybe YES",0.5,31623,"J08",NA,"13:35","set1",NA,NA,NA,NA,NA
"456","practice",NA,-3,"apple_1","skip",NA,10750,"J09",NA,"14:31","set3",NA,NA,NA,NA,NA
"457","practice",NA,-2,"apple_2","skip",NA,4435,"J09",NA,"14:31","set3",NA,NA,NA,NA,NA
"458","practice",NA,-1,"apple_3","skip",NA,3386,"J09",NA,"14:31","set3",NA,NA,NA,NA,NA
"459","practice",NA,0,"apple_1","skip",NA,11183,"J09",NA,"14:31","set3",NA,NA,NA,NA,NA
"460","study","Do you think this one is an animal?",1,"BI2A00019","maybe YES",0.5,15897,"J09",NA,"14:31","set3",NA,NA,NA,NA,NA
"461","study","Do you think this one is an animal?",2,"BI2A00035","definitely NO",-1.5,12467,"J09",NA,"14:31","set3",NA,NA,NA,NA,NA
"462","study","Do you think this one is an animal?",3,"BI2A00027","definitely YES",1.5,26346,"J09",NA,"14:31","set3",NA,NA,NA,NA,NA
"463","study","Do you think this one is an animal?",4,"BI2A00036","definitely YES",1.5,20015,"J09",NA,"14:31","set3",NA,NA,NA,NA,NA
"464","study","Do you think this one is an animal?",5,"BI2A00005","definitely YES",1.5,12552,"J09",NA,"14:31","set3",NA,NA,NA,NA,NA
"465","study","Do you think this one is an animal?",6,"BI2A00007","definitely YES",1.5,6757,"J09",NA,"14:31","set3",NA,NA,NA,NA,NA
"466","study","Do you think this one is an animal?",7,"BI2A00018","definitely NO",-1.5,18737,"J09",NA,"14:31","set3",NA,NA,NA,NA,NA
"467","study","Do you think this one is an animal?",8,"BI2A00044","maybe NO",-0.5,12524,"J09",NA,"14:31","set3",NA,NA,NA,NA,NA
"468","study","Do you think this one is an animal?",9,"BI2A00025","definitely YES",1.5,12838,"J09",NA,"14:31","set3",NA,NA,NA,NA,NA
"469","study","Do you think this one is an animal?",10,"BI2A00017","maybe NO",-0.5,22456,"J09",NA,"14:31","set3",NA,NA,NA,NA,NA
"470","study","Do you think this one is an animal?",11,"BI2A00026","definitely YES",1.5,11551,"J09",NA,"14:31","set3",NA,NA,NA,NA,NA
"471","study","Do you think this one is an animal?",12,"BI2A00010","maybe NO",-0.5,13933,"J09",NA,"14:31","set3",NA,NA,NA,NA,NA
"472","practice",NA,-3,"apple_1","skip",NA,12396,"J10",NA,"15:19","set2",NA,NA,NA,NA,NA
"473","practice",NA,-2,"apple_2","skip",NA,3978,"J10",NA,"15:19","set2",NA,NA,NA,NA,NA
"474","practice",NA,-1,"apple_3","skip",NA,5400,"J10",NA,"15:19","set2",NA,NA,NA,NA,NA
"475","practice",NA,0,"apple_1","skip",NA,13124,"J10",NA,"15:19","set2",NA,NA,NA,NA,NA
"476","study","Do you think this one is an animal?",1,"BI2A00004","maybe YES",0.5,32363,"J10",NA,"15:19","set2",NA,NA,NA,NA,NA
"477","study","Do you think this one is an animal?",2,"BI2A00032","maybe NO",-0.5,19950,"J10",NA,"15:19","set2",NA,NA,NA,NA,NA
"478","study","Do you think this one is an animal?",3,"BI2A00006","definitely YES",1.5,37130,"J10",NA,"15:19","set2",NA,NA,NA,NA,NA
"479","study","Do you think this one is an animal?",4,"BI2A00038","maybe NO",-0.5,14958,"J10",NA,"15:19","set2",NA,NA,NA,NA,NA
"480","study","Do you think this one is an animal?",5,"BI2A00045","maybe NO",-0.5,26688,"J10",NA,"15:19","set2",NA,NA,NA,NA,NA
"481","study","Do you think this one is an animal?",6,"BI2A00002","definitely YES",1.5,14670,"J10",NA,"15:19","set2",NA,NA,NA,NA,NA
"482","study","Do you think this one is an animal?",7,"BI2A00041","skip",NA,11890,"J10",NA,"15:19","set2",NA,NA,NA,NA,NA
"483","study","Do you think this one is an animal?",8,"BI2A00037","definitely NO",-1.5,24578,"J10",NA,"15:19","set2",NA,NA,NA,NA,NA
"484","study","Do you think this one is an animal?",9,"BI2A00040","definitely NO",-1.5,41425,"J10",NA,"15:19","set2",NA,NA,NA,NA,NA
"485","study","Do you think this one is an animal?",10,"BI2A00013","definitely YES",1.5,13850,"J10",NA,"15:19","set2",NA,NA,NA,NA,NA
"486","study","Do you think this one is an animal?",11,"BI2A00016","definitely YES",1.5,12755,"J10",NA,"15:19","set2",NA,NA,NA,NA,NA
"487","study","Do you think this one is an animal?",12,"BI2A00034","definitely NO",-1.5,17335,"J10",NA,"15:19","set2",NA,NA,NA,NA,NA
"488","practice",NA,-3,"apple_1","skip",NA,14678,"J11",NA,"13:36","set3",NA,NA,NA,NA,NA
"489","practice",NA,-2,"apple_2","skip",NA,9887,"J11",NA,"13:36","set3",NA,NA,NA,NA,NA
"490","practice",NA,-1,"apple_3","skip",NA,3368,"J11",NA,"13:36","set3",NA,NA,NA,NA,NA
"491","practice",NA,0,"apple_1","skip",NA,19163,"J11",NA,"13:36","set3",NA,NA,NA,NA,NA
"492","study","Do you think this one is an animal?",1,"BI2A00035","maybe YES",0.5,17337,"J11",NA,"13:36","set3",NA,NA,NA,NA,NA
"493","study","Do you think this one is an animal?",2,"BI2A00005","definitely YES",1.5,17849,"J11",NA,"13:36","set3",NA,NA,NA,NA,NA
"494","study","Do you think this one is an animal?",3,"BI2A00007","definitely YES",1.5,9165,"J11",NA,"13:36","set3",NA,NA,NA,NA,NA
"495","study","Do you think this one is an animal?",4,"BI2A00026","maybe YES",0.5,69198,"J11",NA,"13:36","set3",NA,NA,NA,NA,NA
"496","study","Do you think this one is an animal?",5,"BI2A00017","definitely YES",1.5,17451,"J11",NA,"13:36","set3",NA,NA,NA,NA,NA
"497","study","Do you think this one is an animal?",6,"BI2A00044","definitely NO",-1.5,20138,"J11",NA,"13:36","set3",NA,NA,NA,NA,NA
"498","study","Do you think this one is an animal?",7,"BI2A00027","definitely NO",-1.5,20860,"J11",NA,"13:36","set3",NA,NA,NA,NA,NA
"499","study","Do you think this one is an animal?",8,"BI2A00010","maybe YES",0.5,57316,"J11",NA,"13:36","set3",NA,NA,NA,NA,NA
"500","study","Do you think this one is an animal?",9,"BI2A00019","definitely YES",1.5,66888,"J11",NA,"13:36","set3",NA,NA,NA,NA,NA
"501","study","Do you think this one is an animal?",10,"BI2A00036","definitely YES",1.5,303,"J11",NA,"13:36","set3",NA,NA,NA,NA,NA
"502","study","Do you think this one is an animal?",11,"BI2A00025","definitely YES",1.5,20865,"J11",NA,"13:36","set3",NA,NA,NA,NA,NA
"503","study","Do you think this one is an animal?",12,"BI2A00018","definitely NO",-1.5,24790,"J11",NA,"13:36","set3",NA,NA,NA,NA,NA
"504","practice",NA,-3,"apple_1","skip",NA,15227,"J12",NA,"14:28","set3",NA,NA,NA,NA,NA
"505","practice",NA,-2,"apple_2","skip",NA,3757,"J12",NA,"14:28","set3",NA,NA,NA,NA,NA
"506","practice",NA,-1,"apple_3","skip",NA,4474,"J12",NA,"14:28","set3",NA,NA,NA,NA,NA
"507","practice",NA,0,"apple_1","skip",NA,13328,"J12",NA,"14:28","set3",NA,NA,NA,NA,NA
"508","study","Do you think this one is an animal?",1,"BI2A00005","definitely YES",1.5,33879,"J12",NA,"14:28","set3",NA,NA,NA,NA,NA
"509","study","Do you think this one is an animal?",2,"BI2A00027","definitely YES",1.5,14233,"J12",NA,"14:28","set3",NA,NA,NA,NA,NA
"510","study","Do you think this one is an animal?",3,"BI2A00035","definitely NO",-1.5,15614,"J12",NA,"14:28","set3",NA,NA,NA,NA,NA
"511","study","Do you think this one is an animal?",4,"BI2A00019","definitely YES",1.5,32869,"J12",NA,"14:28","set3",NA,NA,NA,NA,NA
"512","study","Do you think this one is an animal?",5,"BI2A00018","definitely YES",1.5,40189,"J12",NA,"14:28","set3",NA,NA,NA,NA,NA
"513","study","Do you think this one is an animal?",6,"BI2A00010","maybe YES",0.5,34162,"J12",NA,"14:28","set3",NA,NA,NA,NA,NA
"514","study","Do you think this one is an animal?",7,"BI2A00025","definitely NO",-1.5,18604,"J12",NA,"14:28","set3",NA,NA,NA,NA,NA
"515","study","Do you think this one is an animal?",8,"BI2A00017","definitely NO",-1.5,37685,"J12",NA,"14:28","set3",NA,NA,NA,NA,NA
"516","study","Do you think this one is an animal?",9,"BI2A00007","maybe NO",-0.5,30147,"J12",NA,"14:28","set3",NA,NA,NA,NA,NA
"517","study","Do you think this one is an animal?",10,"BI2A00036","definitely NO",-1.5,14983,"J12",NA,"14:28","set3",NA,NA,NA,NA,NA
"518","study","Do you think this one is an animal?",11,"BI2A00026","definitely YES",1.5,15111,"J12",NA,"14:28","set3",NA,NA,NA,NA,NA
"519","study","Do you think this one is an animal?",12,"BI2A00044","definitely NO",-1.5,35958,"J12",NA,"14:28","set3",NA,NA,NA,NA,NA
"520","practice",NA,-3,"apple_1","skip",NA,12086,"J13",NA,"13:32","set4",NA,NA,NA,NA,NA
"521","practice",NA,-2,"apple_2","skip",NA,5006,"J13",NA,"13:32","set4",NA,NA,NA,NA,NA
"522","practice",NA,-1,"apple_3","skip",NA,2685,"J13",NA,"13:32","set4",NA,NA,NA,NA,NA
"523","practice",NA,0,"apple_1","skip",NA,31345,"J13",NA,"13:32","set4",NA,NA,NA,NA,NA
"524","study","Do you think this one is an animal?",1,"BI2A00022","definitely NO",-1.5,19124,"J13",NA,"13:32","set4",NA,NA,NA,NA,NA
"525","study","Do you think this one is an animal?",2,"BI2A00012","maybe NO",-0.5,16928,"J13",NA,"13:32","set4",NA,NA,NA,NA,NA
"526","study","Do you think this one is an animal?",3,"BI2A00039","definitely NO",-1.5,16198,"J13",NA,"13:32","set4",NA,NA,NA,NA,NA
"527","study","Do you think this one is an animal?",4,"BI2A00021","definitely NO",-1.5,231,"J13",NA,"13:32","set4",NA,NA,NA,NA,NA
"528","study","Do you think this one is an animal?",5,"BI2A00042","definitely NO",-1.5,20881,"J13",NA,"13:32","set4",NA,NA,NA,NA,NA
"529","study","Do you think this one is an animal?",6,"BI2A00023","definitely YES",1.5,14725,"J13",NA,"13:32","set4",NA,NA,NA,NA,NA
"530","study","Do you think this one is an animal?",7,"BI2A00001","maybe NO",-0.5,14539,"J13",NA,"13:32","set4",NA,NA,NA,NA,NA
"531","study","Do you think this one is an animal?",8,"BI2A00048","maybe NO",-0.5,14022,"J13",NA,"13:32","set4",NA,NA,NA,NA,NA
"532","study","Do you think this one is an animal?",9,"BI2A00029","maybe YES",0.5,16372,"J13",NA,"13:32","set4",NA,NA,NA,NA,NA
"533","study","Do you think this one is an animal?",10,"BI2A00011","maybe YES",0.5,571,"J13",NA,"13:32","set4",NA,NA,NA,NA,NA
"534","study","Do you think this one is an animal?",11,"BI2A00009","maybe NO",-0.5,28021,"J13",NA,"13:32","set4",NA,NA,NA,NA,NA
"535","study","Do you think this one is an animal?",12,"BI2A00024","maybe NO",-0.5,17647,"J13",NA,"13:32","set4",NA,NA,NA,NA,NA
"536","practice",NA,-3,"apple_1","skip",NA,12894,"J14",NA,"13:58","set4",NA,NA,NA,NA,NA
"537","practice",NA,-2,"apple_2","skip",NA,9256,"J14",NA,"13:58","set4",NA,NA,NA,NA,NA
"538","practice",NA,-1,"apple_3","skip",NA,6920,"J14",NA,"13:58","set4",NA,NA,NA,NA,NA
"539","practice",NA,0,"apple_1","skip",NA,14495,"J14",NA,"13:58","set4",NA,NA,NA,NA,NA
"540","study","Do you think this one is an animal?",1,"BI2A00029","maybe YES",0.5,26035,"J14",NA,"13:58","set4",NA,NA,NA,NA,NA
"541","study","Do you think this one is an animal?",2,"BI2A00011","definitely YES",1.5,34996,"J14",NA,"13:58","set4",NA,NA,NA,NA,NA
"542","study","Do you think this one is an animal?",3,"BI2A00042","definitely NO",-1.5,40015,"J14",NA,"13:58","set4",NA,NA,NA,NA,NA
"543","study","Do you think this one is an animal?",4,"BI2A00001","definitely YES",1.5,32450,"J14",NA,"13:58","set4",NA,NA,NA,NA,NA
"544","study","Do you think this one is an animal?",5,"BI2A00024","definitely NO",-1.5,28578,"J14",NA,"13:58","set4",NA,NA,NA,NA,NA
"545","study","Do you think this one is an animal?",6,"BI2A00023","definitely NO",-1.5,57374,"J14",NA,"13:58","set4",NA,NA,NA,NA,NA
"546","study","Do you think this one is an animal?",7,"BI2A00022","definitely NO",-1.5,51073,"J14",NA,"13:58","set4",NA,NA,NA,NA,NA
"547","study","Do you think this one is an animal?",8,"BI2A00021","definitely YES",1.5,13555,"J14",NA,"13:58","set4",NA,NA,NA,NA,NA
"548","study","Do you think this one is an animal?",9,"BI2A00039","definitely NO",-1.5,18344,"J14",NA,"13:58","set4",NA,NA,NA,NA,NA
"549","study","Do you think this one is an animal?",10,"BI2A00009","definitely NO",-1.5,20993,"J14",NA,"13:58","set4",NA,NA,NA,NA,NA
"550","study","Do you think this one is an animal?",11,"BI2A00048","maybe YES",0.5,21113,"J14",NA,"13:58","set4",NA,NA,NA,NA,NA
"551","study","Do you think this one is an animal?",12,"BI2A00012","definitely YES",1.5,36241,"J14",NA,"13:58","set4",NA,NA,NA,NA,NA
"552","practice",NA,-3,"apple_1","skip",NA,21539,"J15",NA,"15:39","set4",NA,NA,NA,NA,NA
"553","practice",NA,-2,"apple_2","skip",NA,3467,"J15",NA,"15:39","set4",NA,NA,NA,NA,NA
"554","practice",NA,-1,"apple_3","skip",NA,24579,"J15",NA,"15:39","set4",NA,NA,NA,NA,NA
"555","practice",NA,0,"apple_1","skip",NA,10309,"J15",NA,"15:39","set4",NA,NA,NA,NA,NA
"556","study","Do you think this one is an animal?",1,"BI2A00048","definitely NO",-1.5,42789,"J15",NA,"15:39","set4",NA,NA,NA,NA,NA
"557","study","Do you think this one is an animal?",2,"BI2A00023","definitely YES",1.5,14901,"J15",NA,"15:39","set4",NA,NA,NA,NA,NA
"558","study","Do you think this one is an animal?",3,"BI2A00022","definitely NO",-1.5,34645,"J15",NA,"15:39","set4",NA,NA,NA,NA,NA
"559","study","Do you think this one is an animal?",4,"BI2A00021","maybe YES",0.5,15263,"J15",NA,"15:39","set4",NA,NA,NA,NA,NA
"560","study","Do you think this one is an animal?",5,"BI2A00029","maybe NO",-0.5,13889,"J15",NA,"15:39","set4",NA,NA,NA,NA,NA
"561","study","Do you think this one is an animal?",6,"BI2A00009","maybe NO",-0.5,25700,"J15",NA,"15:39","set4",NA,NA,NA,NA,NA
"562","study","Do you think this one is an animal?",7,"BI2A00042","maybe NO",-0.5,39366,"J15",NA,"15:39","set4",NA,NA,NA,NA,NA
"563","study","Do you think this one is an animal?",8,"BI2A00012","maybe YES",0.5,32870,"J15",NA,"15:39","set4",NA,NA,NA,NA,NA
"564","study","Do you think this one is an animal?",9,"BI2A00001","maybe NO",-0.5,61542,"J15",NA,"15:39","set4",NA,NA,NA,NA,NA
"565","study","Do you think this one is an animal?",10,"BI2A00011","maybe YES",0.5,58909,"J15",NA,"15:39","set4",NA,NA,NA,NA,NA
"566","study","Do you think this one is an animal?",11,"BI2A00039","maybe NO",-0.5,21761,"J15",NA,"15:39","set4",NA,NA,NA,NA,NA
"567","study","Do you think this one is an animal?",12,"BI2A00024","definitely YES",1.5,63571,"J15",NA,"15:39","set4",NA,NA,NA,NA,NA
"568","practice",NA,-3,"apple_1","skip",NA,13621,"k01",4.353424658,"9:44","set2","female",NA,NA,"missing year of birth on consent form; guessed because said she was 4",-1995y 0m -222d -6H 0M 0S
"569","practice",NA,-2,"apple_2","skip",NA,2822,"k01",4.353424658,"9:44","set2","female",NA,NA,"missing year of birth on consent form; guessed because said she was 4",-1995y 0m -222d -6H 0M 0S
"570","practice",NA,-1,"apple_3","skip",NA,2609,"k01",4.353424658,"9:44","set2","female",NA,NA,"missing year of birth on consent form; guessed because said she was 4",-1995y 0m -222d -6H 0M 0S
"571","practice",NA,0,"apple_1","skip",NA,11441,"k01",4.353424658,"9:44","set2","female",NA,NA,"missing year of birth on consent form; guessed because said she was 4",-1995y 0m -222d -6H 0M 0S
"572","study","Do you think this one is an animal?",1,"BI2A00045","definitely NO",-1.5,16425,"k01",4.353424658,"9:44","set2","female",NA,NA,"missing year of birth on consent form; guessed because said she was 4",-1995y 0m -222d -6H 0M 0S
"573","study","Do you think this one is an animal?",2,"BI2A00004","maybe YES",0.5,14951,"k01",4.353424658,"9:44","set2","female",NA,NA,"missing year of birth on consent form; guessed because said she was 4",-1995y 0m -222d -6H 0M 0S
"574","study","Do you think this one is an animal?",3,"BI2A00032","definitely NO",-1.5,12966,"k01",4.353424658,"9:44","set2","female",NA,NA,"missing year of birth on consent form; guessed because said she was 4",-1995y 0m -222d -6H 0M 0S
"575","study","Do you think this one is an animal?",4,"BI2A00041","maybe NO",-0.5,11479,"k01",4.353424658,"9:44","set2","female",NA,NA,"missing year of birth on consent form; guessed because said she was 4",-1995y 0m -222d -6H 0M 0S
"576","study","Do you think this one is an animal?",5,"BI2A00002","definitely YES",1.5,8954,"k01",4.353424658,"9:44","set2","female",NA,NA,"missing year of birth on consent form; guessed because said she was 4",-1995y 0m -222d -6H 0M 0S
"577","study","Do you think this one is an animal?",6,"BI2A00038","maybe NO",-0.5,15333,"k01",4.353424658,"9:44","set2","female",NA,NA,"missing year of birth on consent form; guessed because said she was 4",-1995y 0m -222d -6H 0M 0S
"578","study","Do you think this one is an animal?",7,"BI2A00006","definitely YES",1.5,21458,"k01",4.353424658,"9:44","set2","female",NA,NA,"missing year of birth on consent form; guessed because said she was 4",-1995y 0m -222d -6H 0M 0S
"579","study","Do you think this one is an animal?",8,"BI2A00016","maybe YES",0.5,9503,"k01",4.353424658,"9:44","set2","female",NA,NA,"missing year of birth on consent form; guessed because said she was 4",-1995y 0m -222d -6H 0M 0S
"580","study","Do you think this one is an animal?",9,"BI2A00034","definitely NO",-1.5,10350,"k01",4.353424658,"9:44","set2","female",NA,NA,"missing year of birth on consent form; guessed because said she was 4",-1995y 0m -222d -6H 0M 0S
"581","study","Do you think this one is an animal?",10,"BI2A00037","definitely NO",-1.5,11851,"k01",4.353424658,"9:44","set2","female",NA,NA,"missing year of birth on consent form; guessed because said she was 4",-1995y 0m -222d -6H 0M 0S
"582","study","Do you think this one is an animal?",11,"BI2A00013","definitely YES",1.5,15111,"k01",4.353424658,"9:44","set2","female",NA,NA,"missing year of birth on consent form; guessed because said she was 4",-1995y 0m -222d -6H 0M 0S
"583","study","Do you think this one is an animal?",12,"BI2A00040","definitely NO",-1.5,7435,"k01",4.353424658,"9:44","set2","female",NA,NA,"missing year of birth on consent form; guessed because said she was 4",-1995y 0m -222d -6H 0M 0S
"584","bonus","Do you think this one can feel hungry?",13,"BI2A00028","maybe YES",0.5,13682,"k01",4.353424658,"9:44","set2","female",NA,NA,"missing year of birth on consent form; guessed because said she was 4",-1995y 0m -222d -6H 0M 0S
"585","bonus","Do you think this one can remember things?",14,"BI2A00006","maybe YES",0.5,11505,"k01",4.353424658,"9:44","set2","female",NA,NA,"missing year of birth on consent form; guessed because said she was 4",-1995y 0m -222d -6H 0M 0S
"586","bonus","Do you think this one can sense things close by?",15,"BI2A00011","maybe NO",-0.5,12967,"k01",4.353424658,"9:44","set2","female",NA,NA,"missing year of birth on consent form; guessed because said she was 4",-1995y 0m -222d -6H 0M 0S
"587","bonus","Do you think this one can think?",16,"BI2A00026","definitely YES",1.5,12815,"k01",4.353424658,"9:44","set2","female",NA,NA,"missing year of birth on consent form; guessed because said she was 4",-1995y 0m -222d -6H 0M 0S
"588","bonus","Do you think this one can feel happy?",17,"BI2A00046","maybe YES",0.5,8851,"k01",4.353424658,"9:44","set2","female",NA,NA,"missing year of birth on consent form; guessed because said she was 4",-1995y 0m -222d -6H 0M 0S
"589","bonus","Do you think this one can hear?",18,"BI2A00044","definitely NO",-1.5,9418,"k01",4.353424658,"9:44","set2","female",NA,NA,"missing year of birth on consent form; guessed because said she was 4",-1995y 0m -222d -6H 0M 0S
"590","bonus","Do you think this one can feel pain?",19,"BI2A00021","maybe YES",0.5,12050,"k01",4.353424658,"9:44","set2","female",NA,NA,"missing year of birth on consent form; guessed because said she was 4",-1995y 0m -222d -6H 0M 0S
"591","bonus","Do you think this one has feelings?",20,"BI2A00037","definitely YES",1.5,11473,"k01",4.353424658,"9:44","set2","female",NA,NA,"missing year of birth on consent form; guessed because said she was 4",-1995y 0m -222d -6H 0M 0S
"592","practice",NA,-3,"apple_1","skip",NA,11122,"k02",5.868493151,"11:03","set2","female",NA,"",NA,-1994y 0m -34d -12H 0M 0S
"593","practice",NA,-2,"apple_2","skip",NA,3405,"k02",5.868493151,"11:03","set2","female",NA,"",NA,-1994y 0m -34d -12H 0M 0S
"594","practice",NA,-1,"apple_3","skip",NA,3085,"k02",5.868493151,"11:03","set2","female",NA,"",NA,-1994y 0m -34d -12H 0M 0S
"595","practice",NA,0,"apple_1","skip",NA,10506,"k02",5.868493151,"11:03","set2","female",NA,"",NA,-1994y 0m -34d -12H 0M 0S
"596","study","Do you think this one is an animal?",1,"BI2A00041","definitely NO",-1.5,15140,"k02",5.868493151,"11:03","set2","female",NA,"bag",NA,-1994y 0m -34d -12H 0M 0S
"597","study","Do you think this one is an animal?",2,"BI2A00013","definitely YES",1.5,15637,"k02",5.868493151,"11:03","set2","female",NA,"I could tell - fur",NA,-1994y 0m -34d -12H 0M 0S
"598","study","Do you think this one is an animal?",3,"BI2A00045","definitely NO",-1.5,15805,"k02",5.868493151,"11:03","set2","female",NA,"bag",NA,-1994y 0m -34d -12H 0M 0S
"599","study","Do you think this one is an animal?",4,"BI2A00016","maybe YES",0.5,17124,"k02",5.868493151,"11:03","set2","female",NA,"more like wool",NA,-1994y 0m -34d -12H 0M 0S
"600","study","Do you think this one is an animal?",5,"BI2A00004","definitely YES",1.5,8131,"k02",5.868493151,"11:03","set2","female",NA,"",NA,-1994y 0m -34d -12H 0M 0S
"601","study","Do you think this one is an animal?",6,"BI2A00032","maybe YES",0.5,19816,"k02",5.868493151,"11:03","set2","female",NA,"kind of looksÉ",NA,-1994y 0m -34d -12H 0M 0S
"602","study","Do you think this one is an animal?",7,"BI2A00006","definitely YES",1.5,10161,"k02",5.868493151,"11:03","set2","female",NA,"cat fur, I could tell",NA,-1994y 0m -34d -12H 0M 0S
"603","study","Do you think this one is an animal?",8,"BI2A00038","definitely NO",-1.5,10228,"k02",5.868493151,"11:03","set2","female",NA,"",NA,-1994y 0m -34d -12H 0M 0S
"604","study","Do you think this one is an animal?",9,"BI2A00037","maybe YES",0.5,15929,"k02",5.868493151,"11:03","set2","female",NA,"",NA,-1994y 0m -34d -12H 0M 0S
"605","study","Do you think this one is an animal?",10,"BI2A00040","definitely NO",-1.5,11786,"k02",5.868493151,"11:03","set2","female",NA,"rug",NA,-1994y 0m -34d -12H 0M 0S
"606","study","Do you think this one is an animal?",11,"BI2A00002","definitely YES",1.5,20500,"k02",5.868493151,"11:03","set2","female",NA,"cat fur",NA,-1994y 0m -34d -12H 0M 0S
"607","study","Do you think this one is an animal?",12,"BI2A00034","definitely NO",-1.5,10485,"k02",5.868493151,"11:03","set2","female",NA,"rug",NA,-1994y 0m -34d -12H 0M 0S
"608","bonus","Do you think this one can feel hungry?",13,"BI2A00044","definitely NO",-1.5,10437,"k02",5.868493151,"11:03","set2","female",NA,"",NA,-1994y 0m -34d -12H 0M 0S
"609","bonus","Do you think this one can feel pain?",14,"BI2A00006","definitely YES",1.5,8332,"k02",5.868493151,"11:03","set2","female",NA,"",NA,-1994y 0m -34d -12H 0M 0S
"610","bonus","Do you think this one can hear?",15,"BI2A00046","definitely NO",-1.5,7722,"k02",5.868493151,"11:03","set2","female",NA,"",NA,-1994y 0m -34d -12H 0M 0S
"611","bonus","Do you think this one can feel happy?",16,"BI2A00021","maybe YES",0.5,6859,"k02",5.868493151,"11:03","set2","female",NA,"maybe",NA,-1994y 0m -34d -12H 0M 0S
"612","bonus","Do you think this one can think?",17,"BI2A00026","maybe YES",0.5,6583,"k02",5.868493151,"11:03","set2","female",NA,"maybe",NA,-1994y 0m -34d -12H 0M 0S
"613","bonus","Do you think this one can remember things?",18,"BI2A00037","definitely NO",-1.5,8091,"k02",5.868493151,"11:03","set2","female",NA,"",NA,-1994y 0m -34d -12H 0M 0S
"614","bonus","Do you think this one has feelings?",19,"BI2A00011","definitely YES",1.5,8735,"k02",5.868493151,"11:03","set2","female",NA,"",NA,-1994y 0m -34d -12H 0M 0S
"615","bonus","Do you think this one can sense things close by?",20,"BI2A00028","maybe YES",0.5,8262,"k02",5.868493151,"11:03","set2","female",NA,"",NA,-1994y 0m -34d -12H 0M 0S
"616","practice",NA,-3,"apple_1","skip",NA,11656,"k03",6.605479452,"11:30","set2","female","often","",NA,-1993y 0m -130d -18H 0M 0S
"617","practice",NA,-2,"apple_2","skip",NA,5104,"k03",6.605479452,"11:30","set2","female","often","",NA,-1993y 0m -130d -18H 0M 0S
"618","practice",NA,-1,"apple_3","skip",NA,3394,"k03",6.605479452,"11:30","set2","female","often","",NA,-1993y 0m -130d -18H 0M 0S
"619","practice",NA,0,"apple_1","skip",NA,11077,"k03",6.605479452,"11:30","set2","female","often","",NA,-1993y 0m -130d -18H 0M 0S
"620","study","Do you think this one is an animal?",1,"BI2A00045","definitely NO",-1.5,13915,"k03",6.605479452,"11:30","set2","female","often","",NA,-1993y 0m -130d -18H 0M 0S
"621","study","Do you think this one is an animal?",2,"BI2A00006","definitely YES",1.5,13854,"k03",6.605479452,"11:30","set2","female","often","",NA,-1993y 0m -130d -18H 0M 0S
"622","study","Do you think this one is an animal?",3,"BI2A00040","maybe YES",0.5,16399,"k03",6.605479452,"11:30","set2","female","often","",NA,-1993y 0m -130d -18H 0M 0S
"623","study","Do you think this one is an animal?",4,"BI2A00004","definitely YES",1.5,14758,"k03",6.605479452,"11:30","set2","female","often","real",NA,-1993y 0m -130d -18H 0M 0S
"624","study","Do you think this one is an animal?",5,"BI2A00041","maybe NO",-0.5,11782,"k03",6.605479452,"11:30","set2","female","often","",NA,-1993y 0m -130d -18H 0M 0S
"625","study","Do you think this one is an animal?",6,"BI2A00038","maybe YES",0.5,14258,"k03",6.605479452,"11:30","set2","female","often","",NA,-1993y 0m -130d -18H 0M 0S
"626","study","Do you think this one is an animal?",7,"BI2A00032","definitely NO",-1.5,10885,"k03",6.605479452,"11:30","set2","female","often","",NA,-1993y 0m -130d -18H 0M 0S
"627","study","Do you think this one is an animal?",8,"BI2A00002","maybe YES",0.5,9027,"k03",6.605479452,"11:30","set2","female","often","",NA,-1993y 0m -130d -18H 0M 0S
"628","study","Do you think this one is an animal?",9,"BI2A00013","maybe NO",-0.5,16869,"k03",6.605479452,"11:30","set2","female","often","",NA,-1993y 0m -130d -18H 0M 0S
"629","study","Do you think this one is an animal?",10,"BI2A00037","maybe NO",-0.5,12556,"k03",6.605479452,"11:30","set2","female","often","",NA,-1993y 0m -130d -18H 0M 0S
"630","study","Do you think this one is an animal?",11,"BI2A00034","definitely NO",-1.5,14883,"k03",6.605479452,"11:30","set2","female","often","",NA,-1993y 0m -130d -18H 0M 0S
"631","study","Do you think this one is an animal?",12,"BI2A00016","maybe YES",0.5,10260,"k03",6.605479452,"11:30","set2","female","often","",NA,-1993y 0m -130d -18H 0M 0S
"632","bonus","Do you think this one can feel hungry?",13,"BI2A00026","maybe NO",-0.5,19874,"k03",6.605479452,"11:30","set2","female","often","",NA,-1993y 0m -130d -18H 0M 0S
"633","bonus","Do you think this one can hear?",14,"BI2A00046","definitely NO",-1.5,10961,"k03",6.605479452,"11:30","set2","female","often","",NA,-1993y 0m -130d -18H 0M 0S
"634","bonus","Do you think this one has feelings?",15,"BI2A00037","definitely YES",1.5,17082,"k03",6.605479452,"11:30","set2","female","often","",NA,-1993y 0m -130d -18H 0M 0S
"635","bonus","Do you think this one can remember things?",16,"BI2A00011","maybe YES",0.5,10602,"k03",6.605479452,"11:30","set2","female","often","",NA,-1993y 0m -130d -18H 0M 0S
"636","bonus","Do you think this one can feel happy?",17,"BI2A00028","maybe NO",-0.5,13269,"k03",6.605479452,"11:30","set2","female","often","",NA,-1993y 0m -130d -18H 0M 0S
"637","bonus","Do you think this one can think?",18,"BI2A00006","maybe YES",0.5,10475,"k03",6.605479452,"11:30","set2","female","often","",NA,-1993y 0m -130d -18H 0M 0S
"638","bonus","Do you think this one can sense things close by?",19,"BI2A00044","maybe NO",-0.5,14913,"k03",6.605479452,"11:30","set2","female","often","",NA,-1993y 0m -130d -18H 0M 0S
"639","bonus","Do you think this one can feel pain?",20,"BI2A00021","maybe NO",-0.5,12174,"k03",6.605479452,"11:30","set2","female","often","",NA,-1993y 0m -130d -18H 0M 0S
"640","practice",NA,-3,"apple_1","skip",NA,23645,"k04",5.350684932,"11:55","set1","male","always","",NA,-1994y 0m -223d -12H 0M 0S
"641","practice",NA,-2,"apple_2","skip",NA,3304,"k04",5.350684932,"11:55","set1","male","always","",NA,-1994y 0m -223d -12H 0M 0S
"642","practice",NA,-1,"apple_3","skip",NA,6759,"k04",5.350684932,"11:55","set1","male","always","",NA,-1994y 0m -223d -12H 0M 0S
"643","practice",NA,0,"apple_1","skip",NA,20936,"k04",5.350684932,"11:55","set1","male","always","",NA,-1994y 0m -223d -12H 0M 0S
"644","study","Do you think this one is an animal?",1,"BI2A00033","maybe YES",0.5,17855,"k04",5.350684932,"11:55","set1","male","always","it might be",NA,-1994y 0m -223d -12H 0M 0S
"645","study","Do you think this one is an animal?",2,"BI2A00047","maybe NO",-0.5,25612,"k04",5.350684932,"11:55","set1","male","always","it might be a carpet",NA,-1994y 0m -223d -12H 0M 0S
"646","study","Do you think this one is an animal?",3,"BI2A00031","maybe NO",-0.5,32104,"k04",5.350684932,"11:55","set1","male","always","another carpet",NA,-1994y 0m -223d -12H 0M 0S
"647","study","Do you think this one is an animal?",4,"BI2A00030","maybe NO",-0.5,46248,"k04",5.350684932,"11:55","set1","male","always","could be an animal but maybe not",NA,-1994y 0m -223d -12H 0M 0S
"648","study","Do you think this one is an animal?",5,"BI2A00003","definitely YES",1.5,17777,"k04",5.350684932,"11:55","set1","male","always","raccooon",NA,-1994y 0m -223d -12H 0M 0S
"649","study","Do you think this one is an animal?",6,"BI2A00046","definitely NO",-1.5,16986,"k04",5.350684932,"11:55","set1","male","always","just a basket",NA,-1994y 0m -223d -12H 0M 0S
"650","study","Do you think this one is an animal?",7,"BI2A00014","maybe NO",-0.5,25490,"k04",5.350684932,"11:55","set1","male","always","I can't tell - it's maybe",NA,-1994y 0m -223d -12H 0M 0S
"651","study","Do you think this one is an animal?",8,"BI2A00020","maybe NO",-0.5,14203,"k04",5.350684932,"11:55","set1","male","always","",NA,-1994y 0m -223d -12H 0M 0S
"652","study","Do you think this one is an animal?",9,"BI2A00015","maybe YES",0.5,13564,"k04",5.350684932,"11:55","set1","male","always","",NA,-1994y 0m -223d -12H 0M 0S
"653","study","Do you think this one is an animal?",10,"BI2A00028","maybe YES",0.5,50585,"k04",5.350684932,"11:55","set1","male","always","I have no idea, I'm really not sure",NA,-1994y 0m -223d -12H 0M 0S
"654","study","Do you think this one is an animal?",11,"BI2A00043","definitely NO",-1.5,23962,"k04",5.350684932,"11:55","set1","male","always","ocean",NA,-1994y 0m -223d -12H 0M 0S
"655","study","Do you think this one is an animal?",12,"BI2A00008","definitely YES",1.5,11931,"k04",5.350684932,"11:55","set1","male","always","really",NA,-1994y 0m -223d -12H 0M 0S
"656","bonus","Do you think this one can feel hungry?",13,"BI2A00026","maybe NO",-0.5,41857,"k04",5.350684932,"11:55","set1","male","always","yeah, then no",NA,-1994y 0m -223d -12H 0M 0S
"657","bonus","Do you think this one has feelings?",14,"BI2A00046","definitely NO",-1.5,21659,"k04",5.350684932,"11:55","set1","male","always","because it's a wooden",NA,-1994y 0m -223d -12H 0M 0S
"658","bonus","Do you think this one can sense things close by?",15,"BI2A00011","maybe NO",-0.5,29050,"k04",5.350684932,"11:55","set1","male","always","because it has no eyes and it has no sense of things",NA,-1994y 0m -223d -12H 0M 0S
"659","bonus","Do you think this one can think?",16,"BI2A00037","maybe NO",-0.5,15087,"k04",5.350684932,"11:55","set1","male","always","",NA,-1994y 0m -223d -12H 0M 0S
"660","bonus","Do you think this one can remember things?",17,"BI2A00044","definitely NO",-1.5,10797,"k04",5.350684932,"11:55","set1","male","always","",NA,-1994y 0m -223d -12H 0M 0S
