"","phase","question","trialNum","swatch","response","responseCoded","rt","subid","age","timeOfTest","condition","gender","englishExposure","trialComments","sessionComments","ageCalc"
"1","practice",NA,1,"apple_1","skip",NA,12813,"blank",NA,"15:12","set4",NA,NA,NA,"NO PARENT",NA
"2","practice",NA,2,"apple_2","skip",NA,4114,"blank",NA,"15:12","set4",NA,NA,NA,"NO PARENT",NA
"3","practice",NA,3,"apple_3","skip",NA,3110,"blank",NA,"15:12","set4",NA,NA,NA,"NO PARENT",NA
"4","practice",NA,4,"apple_1","skip",NA,11865,"blank",NA,"15:12","set4",NA,NA,NA,"NO PARENT",NA
"5","study","do you think this one is an animal?",5,"BI2A00001","YES",NA,11588,"blank",NA,"15:12","set4",NA,NA,NA,"NO PARENT",NA
"6","study","do you think this one is an animal?",6,"BI2A00039","maybe NO",-0.5,41065,"blank",NA,"15:12","set4",NA,NA,NA,"NO PARENT",NA
"7","study","do you think this one is an animal?",7,"BI2A00048","maybe YES",0.5,34409,"blank",NA,"15:12","set4",NA,NA,NA,"NO PARENT",NA
"8","study","do you think this one is an animal?",8,"BI2A00029","maybe NO",-0.5,18231,"blank",NA,"15:12","set4",NA,NA,NA,"NO PARENT",NA
"9","study","do you think this one is an animal?",9,"BI2A00023","skip",NA,22794,"blank",NA,"15:12","set4",NA,NA,NA,"NO PARENT",NA
"10","study","do you think this one is an animal?",10,"BI2A00021","NO",NA,15953,"blank",NA,"15:12","set4",NA,NA,NA,"NO PARENT",NA
"11","study","do you think this one is an animal?",11,"BI2A00024","definitely YES",2.5,23170,"blank",NA,"15:12","set4",NA,NA,NA,"NO PARENT",NA
"12","study","do you think this one is an animal?",12,"BI2A00011","definitely YES",2.5,7751,"blank",NA,"15:12","set4",NA,NA,NA,"NO PARENT",NA
"13","study","do you think this one is an animal?",13,"BI2A00009","maybe YES",0.5,12075,"blank",NA,"15:12","set4",NA,NA,NA,"NO PARENT",NA
"14","study","do you think this one is an animal?",14,"BI2A00022","maybe YES",0.5,42225,"blank",NA,"15:12","set4",NA,NA,NA,"NO PARENT",NA
"15","study","do you think this one is an animal?",15,"BI2A00042","skip",NA,21574,"blank",NA,"15:12","set4",NA,NA,NA,"NO PARENT",NA
"16","study","do you think this one is an animal?",16,"BI2A00012","skip",NA,9107,"blank",NA,"15:12","set4",NA,NA,NA,"NO PARENT",NA
"17","study","do you think this one is an animal?",1,"BI2A00014","probably NO",-1.5,25416,"p01",4.879452055,NA,"set1","male",NA,NA,NA,4y 0m 320d 0H 0M 0S
"18","study","do you think this one is an animal?",2,"BI2A00046","maybe NO",-0.5,16723,"p01",4.879452055,NA,"set1","male",NA,NA,NA,4y 0m 320d 0H 0M 0S
"19","study","do you think this one is an animal?",3,"BI2A00003","definitely YES",2.5,14635,"p01",4.879452055,NA,"set1","male",NA,NA,NA,4y 0m 320d 0H 0M 0S
"20","study","do you think this one is an animal?",4,"BI2A00020","maybe YES",0.5,19117,"p01",4.879452055,NA,"set1","male",NA,NA,NA,4y 0m 320d 0H 0M 0S
"21","study","do you think this one is an animal?",5,"BI2A00008","maybe YES",0.5,20500,"p01",4.879452055,NA,"set1","male",NA,NA,NA,4y 0m 320d 0H 0M 0S
"22","study","do you think this one is an animal?",6,"BI2A00030","definitely NO",-2.5,10484,"p01",4.879452055,NA,"set1","male",NA,NA,NA,4y 0m 320d 0H 0M 0S
"23","study","do you think this one is an animal?",7,"BI2A00043","definitely NO",-2.5,9153,"p01",4.879452055,NA,"set1","male",NA,NA,NA,4y 0m 320d 0H 0M 0S
"24","study","do you think this one is an animal?",8,"BI2A00047","maybe NO",-0.5,10344,"p01",4.879452055,NA,"set1","male",NA,NA,NA,4y 0m 320d 0H 0M 0S
"25","study","do you think this one is an animal?",9,"BI2A00028","probably YES",1.5,12612,"p01",4.879452055,NA,"set1","male",NA,NA,NA,4y 0m 320d 0H 0M 0S
"26","study","do you think this one is an animal?",10,"BI2A00033","definitely NO",-2.5,18666,"p01",4.879452055,NA,"set1","male",NA,NA,NA,4y 0m 320d 0H 0M 0S
"27","study","do you think this one is an animal?",11,"BI2A00031","definitely NO",-2.5,8887,"p01",4.879452055,NA,"set1","male",NA,NA,NA,4y 0m 320d 0H 0M 0S
"28","study","do you think this one is an animal?",12,"BI2A00015","maybe YES",0.5,11994,"p01",4.879452055,NA,"set1","male",NA,NA,NA,4y 0m 320d 0H 0M 0S
"29","study","do you think this one is an animal?",1,"BI2A00015","n",NA,14314,"p02",3.082191781,NA,"set1","male","always","",NA,3y 0m 29d 6H 0M 0S
"30","study","do you think this one is an animal?",2,"BI2A00008","y",NA,5331,"p02",3.082191781,NA,"set1","male","always","",NA,3y 0m 29d 6H 0M 0S
"31","study","do you think this one is an animal?",3,"BI2A00014","y",NA,4317,"p02",3.082191781,NA,"set1","male","always","",NA,3y 0m 29d 6H 0M 0S
"32","study","do you think this one is an animal?",4,"BI2A00033","n",NA,11763,"p02",3.082191781,NA,"set1","male","always","sand",NA,3y 0m 29d 6H 0M 0S
"33","study","do you think this one is an animal?",5,"BI2A00031","n",NA,20431,"p02",3.082191781,NA,"set1","male","always","black thing carpet",NA,3y 0m 29d 6H 0M 0S
"34","study","do you think this one is an animal?",6,"BI2A00030","n",NA,13259,"p02",3.082191781,NA,"set1","male","always","",NA,3y 0m 29d 6H 0M 0S
"35","study","do you think this one is an animal?",7,"BI2A00047","n",NA,6137,"p02",3.082191781,NA,"set1","male","always","",NA,3y 0m 29d 6H 0M 0S
"36","study","do you think this one is an animal?",8,"BI2A00046","n",NA,5069,"p02",3.082191781,NA,"set1","male","always","",NA,3y 0m 29d 6H 0M 0S
"37","study","do you think this one is an animal?",9,"BI2A00020","n",NA,7038,"p02",3.082191781,NA,"set1","male","always","",NA,3y 0m 29d 6H 0M 0S
"38","study","do you think this one is an animal?",10,"BI2A00003","y",NA,5266,"p02",3.082191781,NA,"set1","male","always","",NA,3y 0m 29d 6H 0M 0S
"39","study","do you think this one is an animal?",11,"BI2A00043","y",NA,24703,"p02",3.082191781,NA,"set1","male","always","",NA,3y 0m 29d 6H 0M 0S
"40","study","do you think this one is an animal?",12,"BI2A00028","n",NA,6251,"p02",3.082191781,NA,"set1","male","always","",NA,3y 0m 29d 6H 0M 0S
"41","bonus","do you think this can feel happy?",13,"BI2A00043","n",NA,12049,"p02",3.082191781,NA,"set1","male","always","",NA,3y 0m 29d 6H 0M 0S
"42","bonus","do you think this one has feelings",14,"BI2A00008","y",NA,6863,"p02",3.082191781,NA,"set1","male","always","",NA,3y 0m 29d 6H 0M 0S
"43","bonus","do you think this one can think?",15,"BI2A00031","n",NA,6581,"p02",3.082191781,NA,"set1","male","always","",NA,3y 0m 29d 6H 0M 0S
"44","bonus","do you think this one can sense things nearby",16,"BI2A00046","n",NA,7873,"p02",3.082191781,NA,"set1","male","always","",NA,3y 0m 29d 6H 0M 0S
"45","bonus","do you think this one can feel pain",17,"BI2A00003","n",NA,12623,"p02",3.082191781,NA,"set1","male","always","",NA,3y 0m 29d 6H 0M 0S
"46","bonus","do you think this one can feel hungry",18,"BI2A00020","y",NA,5750,"p02",3.082191781,NA,"set1","male","always","",NA,3y 0m 29d 6H 0M 0S
"47","study","do you think this one is an animal?",1,"BI2A00045","n",NA,22880,"p03",3.621917808,NA,"set2","female","always","basket",NA,3y 0m 226d 6H 0M 0S
"48","study","do you think this one is an animal?",2,"BI2A00034","n",NA,14199,"p03",3.621917808,NA,"set2","female","always","",NA,3y 0m 226d 6H 0M 0S
"49","study","do you think this one is an animal?",3,"BI2A00040","n",NA,9477,"p03",3.621917808,NA,"set2","female","always","carpet",NA,3y 0m 226d 6H 0M 0S
"50","study","do you think this one is an animal?",4,"BI2A00032","n",NA,11427,"p03",3.621917808,NA,"set2","female","always","wallet",NA,3y 0m 226d 6H 0M 0S
"51","study","do you think this one is an animal?",5,"BI2A00016","n",NA,10416,"p03",3.621917808,NA,"set2","female","always","",NA,3y 0m 226d 6H 0M 0S
"52","study","do you think this one is an animal?",6,"BI2A00038","n",NA,11422,"p03",3.621917808,NA,"set2","female","always","",NA,3y 0m 226d 6H 0M 0S
"53","study","do you think this one is an animal?",7,"BI2A00037","n",NA,7475,"p03",3.621917808,NA,"set2","female","always","",NA,3y 0m 226d 6H 0M 0S
"54","study","do you think this one is an animal?",8,"BI2A00002","y",NA,18446,"p03",3.621917808,NA,"set2","female","always","dinosaur",NA,3y 0m 226d 6H 0M 0S
"55","study","do you think this one is an animal?",9,"BI2A00013","n",NA,8658,"p03",3.621917808,NA,"set2","female","always","",NA,3y 0m 226d 6H 0M 0S
"56","study","do you think this one is an animal?",10,"BI2A00041","n",NA,4475,"p03",3.621917808,NA,"set2","female","always","",NA,3y 0m 226d 6H 0M 0S
"57","study","do you think this one is an animal?",11,"BI2A00006","n",NA,7380,"p03",3.621917808,NA,"set2","female","always","",NA,3y 0m 226d 6H 0M 0S
"58","study","do you think this one is an animal?",12,"BI2A00004","n",NA,5334,"p03",3.621917808,NA,"set2","female","always","",NA,3y 0m 226d 6H 0M 0S
"59","study","do you think this one is an animal?",1,"BI2A00029","maybe NO",-0.5,17443,"p04",3.830136986,NA,"set4","female",NA,NA,"PARENTS TALKING DURING SESSION, GIVING ANSWERS",3y 0m 302d 6H 0M 0S
"60","study","do you think this one is an animal?",2,"BI2A00011","maybe NO",-0.5,22317,"p04",3.830136986,NA,"set4","female",NA,NA,"PARENTS TALKING DURING SESSION, GIVING ANSWERS",3y 0m 302d 6H 0M 0S
"61","study","do you think this one is an animal?",3,"BI2A00021","maybe NO",-0.5,10965,"p04",3.830136986,NA,"set4","female",NA,NA,"PARENTS TALKING DURING SESSION, GIVING ANSWERS",3y 0m 302d 6H 0M 0S
"62","study","do you think this one is an animal?",4,"BI2A00024","skip",NA,45856,"p04",3.830136986,NA,"set4","female",NA,NA,"PARENTS TALKING DURING SESSION, GIVING ANSWERS",3y 0m 302d 6H 0M 0S
"63","study","do you think this one is an animal?",5,"BI2A00042","maybe NO",-0.5,42111,"p04",3.830136986,NA,"set4","female",NA,NA,"PARENTS TALKING DURING SESSION, GIVING ANSWERS",3y 0m 302d 6H 0M 0S
"64","study","do you think this one is an animal?",6,"BI2A00012","maybe NO",-0.5,15506,"p04",3.830136986,NA,"set4","female",NA,NA,"PARENTS TALKING DURING SESSION, GIVING ANSWERS",3y 0m 302d 6H 0M 0S
"65","study","do you think this one is an animal?",7,"BI2A00001","skip",NA,44761,"p04",3.830136986,NA,"set4","female",NA,NA,"PARENTS TALKING DURING SESSION, GIVING ANSWERS",3y 0m 302d 6H 0M 0S
"66","study","do you think this one is an animal?",8,"BI2A00022","maybe NO",-0.5,7083,"p04",3.830136986,NA,"set4","female",NA,NA,"PARENTS TALKING DURING SESSION, GIVING ANSWERS",3y 0m 302d 6H 0M 0S
"67","study","do you think this one is an animal?",9,"BI2A00039","maybe NO",-0.5,5312,"p04",3.830136986,NA,"set4","female",NA,NA,"PARENTS TALKING DURING SESSION, GIVING ANSWERS",3y 0m 302d 6H 0M 0S
"68","study","do you think this one is an animal?",10,"BI2A00009","maybe NO",-0.5,11327,"p04",3.830136986,NA,"set4","female",NA,NA,"PARENTS TALKING DURING SESSION, GIVING ANSWERS",3y 0m 302d 6H 0M 0S
"69","study","do you think this one is an animal?",11,"BI2A00023","skip",NA,17803,"p04",3.830136986,NA,"set4","female",NA,NA,"PARENTS TALKING DURING SESSION, GIVING ANSWERS",3y 0m 302d 6H 0M 0S
"70","study","do you think this one is an animal?",12,"BI2A00048","skip",NA,569,"p04",3.830136986,NA,"set4","female",NA,NA,"PARENTS TALKING DURING SESSION, GIVING ANSWERS",3y 0m 302d 6H 0M 0S
"71","study","do you think this one is an animal?",1,"BI2A00026","definitely YES",2.5,22804,"p05",4.693150685,NA,"set3","female","always",NA,NA,4y 0m 252d 0H 0M 0S
"72","study","do you think this one is an animal?",2,"BI2A00036","maybe NO",-0.5,26745,"p05",4.693150685,NA,"set3","female","always",NA,NA,4y 0m 252d 0H 0M 0S
"73","study","do you think this one is an animal?",3,"BI2A00027","definitely YES",2.5,21958,"p05",4.693150685,NA,"set3","female","always",NA,NA,4y 0m 252d 0H 0M 0S
"74","study","do you think this one is an animal?",4,"BI2A00035","definitely NO",-2.5,18273,"p05",4.693150685,NA,"set3","female","always",NA,NA,4y 0m 252d 0H 0M 0S
"75","study","do you think this one is an animal?",5,"BI2A00007","maybe YES",0.5,21511,"p05",4.693150685,NA,"set3","female","always",NA,NA,4y 0m 252d 0H 0M 0S
"76","study","do you think this one is an animal?",6,"BI2A00019","definitely YES",2.5,29024,"p05",4.693150685,NA,"set3","female","always",NA,NA,4y 0m 252d 0H 0M 0S
"77","study","do you think this one is an animal?",7,"BI2A00025","probably NO",-1.5,25284,"p05",4.693150685,NA,"set3","female","always",NA,NA,4y 0m 252d 0H 0M 0S
"78","study","do you think this one is an animal?",8,"BI2A00017","definitely YES",2.5,21660,"p05",4.693150685,NA,"set3","female","always",NA,NA,4y 0m 252d 0H 0M 0S
"79","study","do you think this one is an animal?",9,"BI2A00010","definitely YES",2.5,17311,"p05",4.693150685,NA,"set3","female","always",NA,NA,4y 0m 252d 0H 0M 0S
"80","study","do you think this one is an animal?",10,"BI2A00005","maybe YES",0.5,14195,"p05",4.693150685,NA,"set3","female","always",NA,NA,4y 0m 252d 0H 0M 0S
"81","study","do you think this one is an animal?",11,"BI2A00018","definitely NO",-2.5,15235,"p05",4.693150685,NA,"set3","female","always",NA,NA,4y 0m 252d 0H 0M 0S
"82","study","do you think this one is an animal?",12,"BI2A00044","definitely NO",-2.5,8898,"p05",4.693150685,NA,"set3","female","always",NA,NA,4y 0m 252d 0H 0M 0S
"83","bonus","do you think this can feel happy?",13,"BI2A00007","definitely YES",2.5,17701,"p05",4.693150685,NA,"set3","female","always",NA,NA,4y 0m 252d 0H 0M 0S
"84","bonus","do you think this one has feelings?",14,"BI2A00018","definitely NO",-2.5,16660,"p05",4.693150685,NA,"set3","female","always",NA,NA,4y 0m 252d 0H 0M 0S
"85","bonus","do you think this one can feel hungry?",15,"BI2A00005","definitely YES",2.5,14068,"p05",4.693150685,NA,"set3","female","always",NA,NA,4y 0m 252d 0H 0M 0S
"86","bonus","do you think this one can think?",16,"BI2A00017","definitely YES",2.5,15843,"p05",4.693150685,NA,"set3","female","always",NA,NA,4y 0m 252d 0H 0M 0S
"87","bonus","do you think this one can feel pain?",17,"BI2A00044","maybe NO",-0.5,16631,"p05",4.693150685,NA,"set3","female","always",NA,NA,4y 0m 252d 0H 0M 0S
"88","bonus","do you think this one can sense things nearby?",18,"BI2A00035","definitely NO",-2.5,18694,"p05",4.693150685,NA,"set3","female","always",NA,NA,4y 0m 252d 0H 0M 0S
"89","study","do you think this one is an animal?",1,"BI2A00008","y",NA,13834,"p06",3.287671233,NA,"set1","female","always","",NA,3y 0m 104d 6H 0M 0S
"90","study","do you think this one is an animal?",2,"BI2A00003","y",NA,6708,"p06",3.287671233,NA,"set1","female","always","",NA,3y 0m 104d 6H 0M 0S
"91","study","do you think this one is an animal?",3,"BI2A00047","y",NA,6074,"p06",3.287671233,NA,"set1","female","always","",NA,3y 0m 104d 6H 0M 0S
"92","study","do you think this one is an animal?",4,"BI2A00015","y",NA,4702,"p06",3.287671233,NA,"set1","female","always","",NA,3y 0m 104d 6H 0M 0S
"93","study","do you think this one is an animal?",5,"BI2A00033","y",NA,6277,"p06",3.287671233,NA,"set1","female","always","",NA,3y 0m 104d 6H 0M 0S
"94","study","do you think this one is an animal?",6,"BI2A00046","y",NA,8057,"p06",3.287671233,NA,"set1","female","always","",NA,3y 0m 104d 6H 0M 0S
"95","study","do you think this one is an animal?",7,"BI2A00014","y",NA,16725,"p06",3.287671233,NA,"set1","female","always","maybe a giraffe",NA,3y 0m 104d 6H 0M 0S
"96","study","do you think this one is an animal?",8,"BI2A00031","y",NA,17155,"p06",3.287671233,NA,"set1","female","always","maybe a polkadot",NA,3y 0m 104d 6H 0M 0S
"97","study","do you think this one is an animal?",9,"BI2A00043","y",NA,13347,"p06",3.287671233,NA,"set1","female","always","maybe a panda",NA,3y 0m 104d 6H 0M 0S
"98","study","do you think this one is an animal?",10,"BI2A00020","y",NA,8274,"p06",3.287671233,NA,"set1","female","always","",NA,3y 0m 104d 6H 0M 0S
"99","study","do you think this one is an animal?",11,"BI2A00028","y",NA,9639,"p06",3.287671233,NA,"set1","female","always","",NA,3y 0m 104d 6H 0M 0S
"100","study","do you think this one is an animal?",12,"BI2A00030","y",NA,15524,"p06",3.287671233,NA,"set1","female","always","a baby panda",NA,3y 0m 104d 6H 0M 0S
"101","bonus","do you think this can feel happy?",13,"BI2A00043","y",NA,11193,"p06",3.287671233,NA,"set1","female","always","",NA,3y 0m 104d 6H 0M 0S
"102","bonus","do you think this one can think?",14,"BI2A00046","y",NA,7455,"p06",3.287671233,NA,"set1","female","always","",NA,3y 0m 104d 6H 0M 0S
"103","bonus","do you think this one has feelings?",15,"BI2A00020","y",NA,9240,"p06",3.287671233,NA,"set1","female","always","",NA,3y 0m 104d 6H 0M 0S
"104","bonus","do you think this one can feel hungry?",16,"BI2A00003","skip",NA,17981,"p06",3.287671233,NA,"set1","female","always","baby giraffe",NA,3y 0m 104d 6H 0M 0S
"105","bonus","do you think this one can feel pain?",17,"BI2A00008","skip",NA,20844,"p06",3.287671233,NA,"set1","female","always","a brother giraffe",NA,3y 0m 104d 6H 0M 0S
"106","bonus","do you think this one can sense things nearby?",18,"BI2A00031","skip",NA,15234,"p06",3.287671233,NA,"set1","female","always","a baby giraffe",NA,3y 0m 104d 6H 0M 0S
"107","study","do you think this one is an animal?",1,"BI2A00006","n",NA,17843,"p07",3.347945205,NA,"set2","female",NA,NA,"LIMITED ENGLISH",3y 0m 126d 6H 0M 0S
"108","study","do you think this one is an animal?",2,"BI2A00045","n",NA,7673,"p07",3.347945205,NA,"set2","female",NA,NA,"LIMITED ENGLISH",3y 0m 126d 6H 0M 0S
"109","study","do you think this one is an animal?",3,"BI2A00032","n",NA,9039,"p07",3.347945205,NA,"set2","female",NA,NA,"LIMITED ENGLISH",3y 0m 126d 6H 0M 0S
"110","study","do you think this one is an animal?",4,"BI2A00013","n",NA,7869,"p07",3.347945205,NA,"set2","female",NA,NA,"LIMITED ENGLISH",3y 0m 126d 6H 0M 0S
"111","study","do you think this one is an animal?",5,"BI2A00013","n",NA,NA,"p07",3.347945205,NA,"set2","female",NA,NA,"LIMITED ENGLISH",3y 0m 126d 6H 0M 0S
"112","study","do you think this one is an animal?",1,"BI2A00005","y",NA,39040,"p08",5.323287671,NA,"set3","female",NA,"",NA,5y 0m 116d 18H 0M 0S
"113","study","do you think this one is an animal?",2,"BI2A00010","n",NA,13442,"p08",5.323287671,NA,"set3","female",NA,"",NA,5y 0m 116d 18H 0M 0S
"114","study","do you think this one is an animal?",3,"BI2A00017","n",NA,20082,"p08",5.323287671,NA,"set3","female",NA,"brown wall",NA,5y 0m 116d 18H 0M 0S
"115","study","do you think this one is an animal?",4,"BI2A00035","n",NA,10121,"p08",5.323287671,NA,"set3","female",NA,"rug",NA,5y 0m 116d 18H 0M 0S
"116","study","do you think this one is an animal?",5,"BI2A00025","n",NA,16557,"p08",5.323287671,NA,"set3","female",NA,"carpet",NA,5y 0m 116d 18H 0M 0S
"117","study","do you think this one is an animal?",6,"BI2A00007","y",NA,11654,"p08",5.323287671,NA,"set3","female",NA,"chick",NA,5y 0m 116d 18H 0M 0S
"118","study","do you think this one is an animal?",7,"BI2A00019","skip",NA,27121,"p08",5.323287671,NA,"set3","female",NA,"IDK",NA,5y 0m 116d 18H 0M 0S
"119","study","do you think this one is an animal?",8,"BI2A00036","n",NA,12594,"p08",5.323287671,NA,"set3","female",NA,"carpet",NA,5y 0m 116d 18H 0M 0S
"120","study","do you think this one is an animal?",9,"BI2A00044","n",NA,26550,"p08",5.323287671,NA,"set3","female",NA,"on the ground when you walking",NA,5y 0m 116d 18H 0M 0S
"121","study","do you think this one is an animal?",10,"BI2A00026","n",NA,23910,"p08",5.323287671,NA,"set3","female",NA,"a pokey thing",NA,5y 0m 116d 18H 0M 0S
"122","study","do you think this one is an animal?",11,"BI2A00027","n",NA,13992,"p08",5.323287671,NA,"set3","female",NA,"a white and dirty wall",NA,5y 0m 116d 18H 0M 0S
"123","study","do you think this one is an animal?",12,"BI2A00018","n",NA,8123,"p08",5.323287671,NA,"set3","female",NA,"",NA,5y 0m 116d 18H 0M 0S
"124","bonus","do you think this one can feel hungry?",13,"BI2A00007","n",NA,10646,"p08",5.323287671,NA,"set3","female",NA,"",NA,5y 0m 116d 18H 0M 0S
"125","bonus","do you think this one can think?",14,"BI2A00017","n",NA,8386,"p08",5.323287671,NA,"set3","female",NA,"",NA,5y 0m 116d 18H 0M 0S
"126","bonus","do you think this can feel happy?",15,"BI2A00035","n",NA,29856,"p08",5.323287671,NA,"set3","female",NA,"not a living thing",NA,5y 0m 116d 18H 0M 0S
"127","bonus","do you think this one can see?",16,"BI2A00018","n",NA,14958,"p08",5.323287671,NA,"set3","female",NA,"no eyes",NA,5y 0m 116d 18H 0M 0S
"128","bonus","do you think this one can feel pain",17,"BI2A00044","n",-2.5,9623,"p08",5.323287671,NA,"set3","female",NA,"",NA,5y 0m 116d 18H 0M 0S
"129","bonus","do you think this one can feel sad?",18,"BI2A00005","y",NA,11020,"p08",5.323287671,NA,"set3","female",NA,"",NA,5y 0m 116d 18H 0M 0S
"130","practice",NA,1,"apple_1","skip",NA,12140,"p09",6.378082192,"14:42","set4","male","always","",NA,6y 0m 136d 12H 0M 0S
"131","practice",NA,2,"apple_2","skip",NA,4135,"p09",6.378082192,"14:42","set4","male","always","",NA,6y 0m 136d 12H 0M 0S
"132","practice",NA,3,"apple_3","skip",NA,3763,"p09",6.378082192,"14:42","set4","male","always","",NA,6y 0m 136d 12H 0M 0S
"133","practice",NA,4,"apple_1","skip",NA,19523,"p09",6.378082192,"14:42","set4","male","always","",NA,6y 0m 136d 12H 0M 0S
"134","study","do you think this one is an animal?",5,"BI2A00024","definitely YES",2.5,13629,"p09",6.378082192,"14:42","set4","male","always","",NA,6y 0m 136d 12H 0M 0S
"135","study","do you think this one is an animal?",6,"BI2A00022","skip",NA,43900,"p09",6.378082192,"14:42","set4","male","always","both",NA,6y 0m 136d 12H 0M 0S
"136","study","do you think this one is an animal?",7,"BI2A00001","probably YES",1.5,15461,"p09",6.378082192,"14:42","set4","male","always","",NA,6y 0m 136d 12H 0M 0S
"137","study","do you think this one is an animal?",8,"BI2A00042","probably YES",1.5,15693,"p09",6.378082192,"14:42","set4","male","always","dolphin",NA,6y 0m 136d 12H 0M 0S
"138","study","do you think this one is an animal?",9,"BI2A00029","definitely YES",2.5,25634,"p09",6.378082192,"14:42","set4","male","always","koalas",NA,6y 0m 136d 12H 0M 0S
"139","study","do you think this one is an animal?",10,"BI2A00011","definitely YES",2.5,20660,"p09",6.378082192,"14:42","set4","male","always","elephant",NA,6y 0m 136d 12H 0M 0S
"140","study","do you think this one is an animal?",11,"BI2A00048","definitely YES",2.5,11089,"p09",6.378082192,"14:42","set4","male","always","zebra",NA,6y 0m 136d 12H 0M 0S
"141","study","do you think this one is an animal?",12,"BI2A00012","probably NO",-1.5,32815,"p09",6.378082192,"14:42","set4","male","always","IDK maybe",NA,6y 0m 136d 12H 0M 0S
"142","study","do you think this one is an animal?",13,"BI2A00039","definitely NO",-2.5,14817,"p09",6.378082192,"14:42","set4","male","always","rocks, cause animals don't have that",NA,6y 0m 136d 12H 0M 0S
"143","study","do you think this one is an animal?",14,"BI2A00021","definitely NO",-2.5,23544,"p09",6.378082192,"14:42","set4","male","always","ground",NA,6y 0m 136d 12H 0M 0S
"144","study","do you think this one is an animal?",15,"BI2A00009","maybe YES",0.5,28263,"p09",6.378082192,"14:42","set4","male","always","IDK what kind",NA,6y 0m 136d 12H 0M 0S
"145","study","do you think this one is an animal?",16,"BI2A00023","maybe NO",-0.5,28520,"p09",6.378082192,"14:42","set4","male","always","sometimes",NA,6y 0m 136d 12H 0M 0S
"146","bonus","Do you think this one has feelings?",17,"BI2A00048","skip",NA,17745,"p09",6.378082192,"14:42","set4","male","always","IDK maybe",NA,6y 0m 136d 12H 0M 0S
"147","bonus","Do you think this one can feel hungry?",18,"BI2A00011","definitely YES",2.5,11896,"p09",6.378082192,"14:42","set4","male","always","",NA,6y 0m 136d 12H 0M 0S
"148","bonus","Do you think this one can sense things nearby?",19,"BI2A00022","definitely NO",-2.5,12330,"p09",6.378082192,"14:42","set4","male","always","",NA,6y 0m 136d 12H 0M 0S
"149","bonus","Do you think this one can think?",20,"BI2A00009","maybe YES",0.5,13267,"p09",6.378082192,"14:42","set4","male","always","all animals can think",NA,6y 0m 136d 12H 0M 0S
"150","bonus","Do you think this one can feel pain?",21,"BI2A00023","skip",NA,14201,"p09",6.378082192,"14:42","set4","male","always","maybe both",NA,6y 0m 136d 12H 0M 0S
"151","bonus","Do you think this can feel happy?",22,"BI2A00039","definitely NO",-2.5,18446,"p09",6.378082192,"14:42","set4","male","always","does not",NA,6y 0m 136d 12H 0M 0S
"152","practice",NA,1,"apple_1","skip",NA,19075,"p10",6.668493151,"15:00","set3","male","always","",NA,6y 0m 242d 12H 0M 0S
"153","practice",NA,2,"apple_2","skip",NA,3398,"p10",6.668493151,"15:00","set3","male","always","",NA,6y 0m 242d 12H 0M 0S
"154","practice",NA,3,"apple_3","skip",NA,20107,"p10",6.668493151,"15:00","set3","male","always","",NA,6y 0m 242d 12H 0M 0S
"155","practice",NA,4,"apple_1","skip",NA,9592,"p10",6.668493151,"15:00","set3","male","always","",NA,6y 0m 242d 12H 0M 0S
"156","study","do you think this one is an animal?",5,"BI2A00005","definitely YES",2.5,17821,"p10",6.668493151,"15:00","set3","male","always","",NA,6y 0m 242d 12H 0M 0S
"157","study","do you think this one is an animal?",6,"BI2A00019","definitely YES",2.5,12970,"p10",6.668493151,"15:00","set3","male","always","",NA,6y 0m 242d 12H 0M 0S
"158","study","do you think this one is an animal?",7,"BI2A00027","definitely NO",-2.5,19251,"p10",6.668493151,"15:00","set3","male","always","",NA,6y 0m 242d 12H 0M 0S
"159","study","do you think this one is an animal?",8,"BI2A00035","definitely NO",-2.5,5438,"p10",6.668493151,"15:00","set3","male","always","",NA,6y 0m 242d 12H 0M 0S
"160","study","do you think this one is an animal?",9,"BI2A00036","definitely NO",-2.5,24439,"p10",6.668493151,"15:00","set3","male","always","kind of looks like wool",NA,6y 0m 242d 12H 0M 0S
"161","study","do you think this one is an animal?",10,"BI2A00026","maybe NO",-0.5,31973,"p10",6.668493151,"15:00","set3","male","always","kind of looks like hay",NA,6y 0m 242d 12H 0M 0S
"162","study","do you think this one is an animal?",11,"BI2A00044","definitely NO",-2.5,3801,"p10",6.668493151,"15:00","set3","male","always","",NA,6y 0m 242d 12H 0M 0S
"163","study","do you think this one is an animal?",12,"BI2A00010","probably YES",1.5,10225,"p10",6.668493151,"15:00","set3","male","always","",NA,6y 0m 242d 12H 0M 0S
"164","study","do you think this one is an animal?",13,"BI2A00018","definitely NO",-2.5,10680,"p10",6.668493151,"15:00","set3","male","always","",NA,6y 0m 242d 12H 0M 0S
"165","study","do you think this one is an animal?",14,"BI2A00017","definitely NO",-2.5,6129,"p10",6.668493151,"15:00","set3","male","always","",NA,6y 0m 242d 12H 0M 0S
"166","study","do you think this one is an animal?",15,"BI2A00025","definitely NO",-2.5,5450,"p10",6.668493151,"15:00","set3","male","always","",NA,6y 0m 242d 12H 0M 0S
"167","study","do you think this one is an animal?",16,"BI2A00007","definitely YES",2.5,5318,"p10",6.668493151,"15:00","set3","male","always","",NA,6y 0m 242d 12H 0M 0S
"168","bonus","Do you think this one can think?",17,"BI2A00018","probably NO",-1.5,27021,"p10",6.668493151,"15:00","set3","male","always","if it's not an animal",NA,6y 0m 242d 12H 0M 0S
"169","bonus","Do you think this one has feelings?",18,"BI2A00044","definitely NO",-2.5,19611,"p10",6.668493151,"15:00","set3","male","always","",NA,6y 0m 242d 12H 0M 0S
"170","bonus","Do you think this can feel happy?",19,"BI2A00007","probably YES",1.5,17309,"p10",6.668493151,"15:00","set3","male","always","it's an animal so it can",NA,6y 0m 242d 12H 0M 0S
"171","bonus","Do you think this one can feel pain?",20,"BI2A00005","definitely YES",2.5,20302,"p10",6.668493151,"15:00","set3","male","always","if it's an animal",NA,6y 0m 242d 12H 0M 0S
"172","bonus","Do you think this one can see?",21,"BI2A00017","probably NO",-1.5,12303,"p10",6.668493151,"15:00","set3","male","always","",NA,6y 0m 242d 12H 0M 0S
"173","bonus","Do you think this one can feel hungry?",22,"BI2A00035","definitely NO",-2.5,10169,"p10",6.668493151,"15:00","set3","male","always","",NA,6y 0m 242d 12H 0M 0S
"174","practice",NA,1,"apple_1","skip",NA,11918,"p11",5.115068493,"15:15","set2","male",NA,"",NA,5y 0m 40d 18H 0M 0S
"175","practice",NA,2,"apple_2","skip",NA,4508,"p11",5.115068493,"15:15","set2","male",NA,"",NA,5y 0m 40d 18H 0M 0S
"176","practice",NA,3,"apple_3","skip",NA,3408,"p11",5.115068493,"15:15","set2","male",NA,"",NA,5y 0m 40d 18H 0M 0S
"177","practice",NA,4,"apple_1","skip",NA,11092,"p11",5.115068493,"15:15","set2","male",NA,"",NA,5y 0m 40d 18H 0M 0S
"178","study","do you think this one is an animal?",5,"BI2A00032","YES",NA,27410,"p11",5.115068493,"15:15","set2","male",NA,"",NA,5y 0m 40d 18H 0M 0S
"179","study","do you think this one is an animal?",6,"BI2A00034","YES",NA,17933,"p11",5.115068493,"15:15","set2","male",NA,"",NA,5y 0m 40d 18H 0M 0S
"180","study","do you think this one is an animal?",7,"BI2A00006","definitely YES",2.5,14619,"p11",5.115068493,"15:15","set2","male",NA,"",NA,5y 0m 40d 18H 0M 0S
"181","study","do you think this one is an animal?",8,"BI2A00038","maybe YES",0.5,27188,"p11",5.115068493,"15:15","set2","male",NA,"",NA,5y 0m 40d 18H 0M 0S
"182","study","do you think this one is an animal?",9,"BI2A00037","YES",NA,18202,"p11",5.115068493,"15:15","set2","male",NA,"looks like wood or tree",NA,5y 0m 40d 18H 0M 0S
"183","study","do you think this one is an animal?",10,"BI2A00045","NO",NA,33623,"p11",5.115068493,"15:15","set2","male",NA,"sheep",NA,5y 0m 40d 18H 0M 0S
"184","study","do you think this one is an animal?",11,"BI2A00004","YES",NA,15892,"p11",5.115068493,"15:15","set2","male",NA,"",NA,5y 0m 40d 18H 0M 0S
"185","study","do you think this one is an animal?",12,"BI2A00040","NO",NA,11471,"p11",5.115068493,"15:15","set2","male",NA,"hair of animal",NA,5y 0m 40d 18H 0M 0S
"186","study","do you think this one is an animal?",13,"BI2A00013","YES",NA,15879,"p11",5.115068493,"15:15","set2","male",NA,"floor",NA,5y 0m 40d 18H 0M 0S
"187","study","do you think this one is an animal?",14,"BI2A00016","YES",NA,27435,"p11",5.115068493,"15:15","set2","male",NA,"dog fur",NA,5y 0m 40d 18H 0M 0S
"188","study","do you think this one is an animal?",15,"BI2A00002","YES",NA,8024,"p11",5.115068493,"15:15","set2","male",NA,"camel",NA,5y 0m 40d 18H 0M 0S
"189","study","do you think this one is an animal?",16,"BI2A00041","NO",NA,18384,"p11",5.115068493,"15:15","set2","male",NA,"fur of zebras",NA,5y 0m 40d 18H 0M 0S
"190","bonus","Do you think this one can feel pain?",17,"BI2A00002","NO",NA,9639,"p11",5.115068493,"15:15","set2","male",NA,"a part of a wood of a ƒ",NA,5y 0m 40d 18H 0M 0S
"191","bonus","Do you think this one can feel hurt?",18,"BI2A00034","YES",NA,10109,"p11",5.115068493,"15:15","set2","male",NA,"",NA,5y 0m 40d 18H 0M 0S
"192","bonus","Do you think this one has feelings?",19,"BI2A00045","YES",NA,9727,"p11",5.115068493,"15:15","set2","male",NA,"",NA,5y 0m 40d 18H 0M 0S
"193","bonus","Do you think this one can think?",20,"BI2A00040","YES",NA,8128,"p11",5.115068493,"15:15","set2","male",NA,"",NA,5y 0m 40d 18H 0M 0S
"194","bonus","Do you think this can feel happy?",21,"BI2A00032","YES",NA,4710,"p11",5.115068493,"15:15","set2","male",NA,"",NA,5y 0m 40d 18H 0M 0S
"195","bonus","Do you think this one can feel hungry?",22,"BI2A00006","skip",NA,10987,"p11",5.115068493,"15:15","set2","male",NA,"maybe",NA,5y 0m 40d 18H 0M 0S
"196","practice",NA,1,"apple_1","skip",NA,13417,"p12",5.736986301,"16:45","set4","female",NA,"",NA,5y 0m 267d 18H 0M 0S
"197","practice",NA,2,"apple_2","skip",NA,4035,"p12",5.736986301,"16:45","set4","female",NA,"",NA,5y 0m 267d 18H 0M 0S
"198","practice",NA,3,"apple_3","skip",NA,2978,"p12",5.736986301,"16:45","set4","female",NA,"",NA,5y 0m 267d 18H 0M 0S
"199","practice",NA,4,"apple_1","skip",NA,11790,"p12",5.736986301,"16:45","set4","female",NA,"",NA,5y 0m 267d 18H 0M 0S
"200","study","do you think this one is an animal?",5,"BI2A00009","YES",NA,15903,"p12",5.736986301,"16:45","set4","female",NA,"",NA,5y 0m 267d 18H 0M 0S
"201","study","do you think this one is an animal?",6,"BI2A00039","NO",NA,30861,"p12",5.736986301,"16:45","set4","female",NA,"definitely st very hard",NA,5y 0m 267d 18H 0M 0S
"202","study","do you think this one is an animal?",7,"BI2A00048","NO",NA,15260,"p12",5.736986301,"16:45","set4","female",NA,"sweater",NA,5y 0m 267d 18H 0M 0S
"203","study","do you think this one is an animal?",8,"BI2A00001","YES",NA,11940,"p12",5.736986301,"16:45","set4","female",NA,"raccooon",NA,5y 0m 267d 18H 0M 0S
"204","study","do you think this one is an animal?",9,"BI2A00023","NO",NA,17932,"p12",5.736986301,"16:45","set4","female",NA,"yarn",NA,5y 0m 267d 18H 0M 0S
"205","study","do you think this one is an animal?",10,"BI2A00021","NO",NA,18930,"p12",5.736986301,"16:45","set4","female",NA,"bread",NA,5y 0m 267d 18H 0M 0S
"206","study","do you think this one is an animal?",11,"BI2A00029","NO",NA,14280,"p12",5.736986301,"16:45","set4","female",NA,"carpet",NA,5y 0m 267d 18H 0M 0S
"207","study","do you think this one is an animal?",12,"BI2A00011","YES",NA,11170,"p12",5.736986301,"16:45","set4","female",NA,"elephant",NA,5y 0m 267d 18H 0M 0S
"208","study","do you think this one is an animal?",13,"BI2A00012","definitely NO",-2.5,24615,"p12",5.736986301,"16:45","set4","female",NA,"lots of hair on it",NA,5y 0m 267d 18H 0M 0S
"209","study","do you think this one is an animal?",14,"BI2A00024","YES",NA,14562,"p12",5.736986301,"16:45","set4","female",NA,"porcupine",NA,5y 0m 267d 18H 0M 0S
"210","study","do you think this one is an animal?",15,"BI2A00042","definitely NO",-2.5,14215,"p12",5.736986301,"16:45","set4","female",NA,"water",NA,5y 0m 267d 18H 0M 0S
"211","study","do you think this one is an animal?",16,"BI2A00022","NO",NA,14316,"p12",5.736986301,"16:45","set4","female",NA,"not really",NA,5y 0m 267d 18H 0M 0S
"212","bonus","Do you think this can feel happy?",17,"BI2A00048","NO",NA,12507,"p12",5.736986301,"16:45","set4","female",NA,"because it",NA,5y 0m 267d 18H 0M 0S
"213","bonus","Do you think this one can feel hungry?",18,"BI2A00023","NO",NA,6066,"p12",5.736986301,"16:45","set4","female",NA,"",NA,5y 0m 267d 18H 0M 0S
"214","bonus","Do you think this one can sense things nearby?",19,"BI2A00009","YES",NA,11653,"p12",5.736986301,"16:45","set4","female",NA,"",NA,5y 0m 267d 18H 0M 0S
"215","bonus","Do you think this one can feel hurt?",20,"BI2A00022","skip",NA,23161,"p12",5.736986301,"16:45","set4","female",NA,"",NA,5y 0m 267d 18H 0M 0S
"216","bonus","Do you think this one has feelings?",21,"BI2A00039","NO",NA,7074,"p12",5.736986301,"16:45","set4","female",NA,"",NA,5y 0m 267d 18H 0M 0S
"217","bonus","Do you think this one can think?",22,"BI2A00011","YES",NA,8480,"p12",5.736986301,"16:45","set4","female",NA,"",NA,5y 0m 267d 18H 0M 0S
"218","practice",NA,1,"apple_1","skip",NA,12171,"p13",5.504109589,"14:28","set4","female",NA,"","SPOKE SPANISH WITH DAD",5y 0m 182d 18H 0M 0S
"219","practice",NA,2,"apple_2","skip",NA,5484,"p13",5.504109589,"14:28","set4","female",NA,"","SPOKE SPANISH WITH DAD",5y 0m 182d 18H 0M 0S
"220","practice",NA,3,"apple_3","skip",NA,2965,"p13",5.504109589,"14:28","set4","female",NA,"","SPOKE SPANISH WITH DAD",5y 0m 182d 18H 0M 0S
"221","practice",NA,4,"apple_1","skip",NA,12151,"p13",5.504109589,"14:28","set4","female",NA,"","SPOKE SPANISH WITH DAD",5y 0m 182d 18H 0M 0S
"222","study","do you think this one is an animal?",5,"BI2A00048","NO",NA,18341,"p13",5.504109589,"14:28","set4","female",NA,"","SPOKE SPANISH WITH DAD",5y 0m 182d 18H 0M 0S
"223","study","do you think this one is an animal?",6,"BI2A00039","maybe NO",-0.5,9283,"p13",5.504109589,"14:28","set4","female",NA,"","SPOKE SPANISH WITH DAD",5y 0m 182d 18H 0M 0S
"224","study","do you think this one is an animal?",7,"BI2A00022","definitely NO",-2.5,20879,"p13",5.504109589,"14:28","set4","female",NA,"rock","SPOKE SPANISH WITH DAD",5y 0m 182d 18H 0M 0S
"225","study","do you think this one is an animal?",8,"BI2A00024","definitely YES",2.5,21936,"p13",5.504109589,"14:28","set4","female",NA,"bear","SPOKE SPANISH WITH DAD",5y 0m 182d 18H 0M 0S
"226","study","do you think this one is an animal?",9,"BI2A00011","definitely YES",2.5,14263,"p13",5.504109589,"14:28","set4","female",NA,"elephant","SPOKE SPANISH WITH DAD",5y 0m 182d 18H 0M 0S
"227","study","do you think this one is an animal?",10,"BI2A00001","maybe YES",0.5,16511,"p13",5.504109589,"14:28","set4","female",NA,"raccooon","SPOKE SPANISH WITH DAD",5y 0m 182d 18H 0M 0S
"228","study","do you think this one is an animal?",11,"BI2A00009","maybe NO",-0.5,37689,"p13",5.504109589,"14:28","set4","female",NA,"looks like a monkey","SPOKE SPANISH WITH DAD",5y 0m 182d 18H 0M 0S
"229","study","do you think this one is an animal?",12,"BI2A00042","definitely NO",-2.5,15139,"p13",5.504109589,"14:28","set4","female",NA,"definitely water","SPOKE SPANISH WITH DAD",5y 0m 182d 18H 0M 0S
"230","study","do you think this one is an animal?",13,"BI2A00023","definitely NO",-2.5,20950,"p13",5.504109589,"14:28","set4","female",NA,"IDK","SPOKE SPANISH WITH DAD",5y 0m 182d 18H 0M 0S
"231","study","do you think this one is an animal?",14,"BI2A00029","maybe YES",0.5,15525,"p13",5.504109589,"14:28","set4","female",NA,"","SPOKE SPANISH WITH DAD",5y 0m 182d 18H 0M 0S
"232","study","do you think this one is an animal?",15,"BI2A00012","definitely NO",-2.5,23889,"p13",5.504109589,"14:28","set4","female",NA,"hard for me","SPOKE SPANISH WITH DAD",5y 0m 182d 18H 0M 0S
"233","study","do you think this one is an animal?",16,"BI2A00021","definitely NO",-2.5,10658,"p13",5.504109589,"14:28","set4","female",NA,"dirt","SPOKE SPANISH WITH DAD",5y 0m 182d 18H 0M 0S
"234","practice",NA,1,"apple_1","skip",NA,16860,"p14",7.021917808,"14:43","set1","male",NA,"","SPOKE SPANISH WITH DAD",7y 0m 6d 6H 0M 0S
"235","practice",NA,2,"apple_2","skip",NA,3402,"p14",7.021917808,"14:43","set1","male",NA,"","SPOKE SPANISH WITH DAD",7y 0m 6d 6H 0M 0S
"236","practice",NA,3,"apple_3","skip",NA,2253,"p14",7.021917808,"14:43","set1","male",NA,"","SPOKE SPANISH WITH DAD",7y 0m 6d 6H 0M 0S
"237","practice",NA,4,"apple_1","skip",NA,10515,"p14",7.021917808,"14:43","set1","male",NA,"","SPOKE SPANISH WITH DAD",7y 0m 6d 6H 0M 0S
"238","study","do you think this one is an animal?",5,"BI2A00003","definitely YES",2.5,29663,"p14",7.021917808,"14:43","set1","male",NA,"raccoon","SPOKE SPANISH WITH DAD",7y 0m 6d 6H 0M 0S
"239","study","do you think this one is an animal?",6,"BI2A00014","probably NO",-1.5,32607,"p14",7.021917808,"14:43","set1","male",NA,"hard","SPOKE SPANISH WITH DAD",7y 0m 6d 6H 0M 0S
"240","study","do you think this one is an animal?",7,"BI2A00043","definitely NO",-2.5,17671,"p14",7.021917808,"14:43","set1","male",NA,"water","SPOKE SPANISH WITH DAD",7y 0m 6d 6H 0M 0S
"241","study","do you think this one is an animal?",8,"BI2A00020","probably YES",1.5,43087,"p14",7.021917808,"14:43","set1","male",NA,"dog hair","SPOKE SPANISH WITH DAD",7y 0m 6d 6H 0M 0S
"242","study","do you think this one is an animal?",9,"BI2A00028","definitely NO",-2.5,31884,"p14",7.021917808,"14:43","set1","male",NA,"saw already, a trunk","SPOKE SPANISH WITH DAD",7y 0m 6d 6H 0M 0S
"243","study","do you think this one is an animal?",10,"BI2A00033","maybe NO",-0.5,30022,"p14",7.021917808,"14:43","set1","male",NA,"feathers","SPOKE SPANISH WITH DAD",7y 0m 6d 6H 0M 0S
"244","study","do you think this one is an animal?",11,"BI2A00031","definitely NO",-2.5,33192,"p14",7.021917808,"14:43","set1","male",NA,"rug - I have one that's exactly like that","SPOKE SPANISH WITH DAD",7y 0m 6d 6H 0M 0S
"245","study","do you think this one is an animal?",12,"BI2A00047","maybe NO",-0.5,26689,"p14",7.021917808,"14:43","set1","male",NA,"not animal","SPOKE SPANISH WITH DAD",7y 0m 6d 6H 0M 0S
"246","study","do you think this one is an animal?",13,"BI2A00030","maybe NO",-0.5,27103,"p14",7.021917808,"14:43","set1","male",NA,"blanket for sleeping, might be wrong","SPOKE SPANISH WITH DAD",7y 0m 6d 6H 0M 0S
"247","study","do you think this one is an animal?",14,"BI2A00008","definitely YES",2.5,19490,"p14",7.021917808,"14:43","set1","male",NA,"monkey","SPOKE SPANISH WITH DAD",7y 0m 6d 6H 0M 0S
"248","study","do you think this one is an animal?",15,"BI2A00046","definitely NO",-2.5,15285,"p14",7.021917808,"14:43","set1","male",NA,"basket","SPOKE SPANISH WITH DAD",7y 0m 6d 6H 0M 0S
"249","study","do you think this one is an animal?",16,"BI2A00015","probably YES",1.5,20356,"p14",7.021917808,"14:43","set1","male",NA,"fur cat","SPOKE SPANISH WITH DAD",7y 0m 6d 6H 0M 0S
"250","bonus","Do you think this one can sense things nearby?",17,"BI2A00043","NO",NA,12054,"p14",7.021917808,"14:43","set1","male",NA,"","SPOKE SPANISH WITH DAD",7y 0m 6d 6H 0M 0S
"251","bonus","Do you think this one can feel pain?",18,"BI2A00031","skip",NA,11573,"p14",7.021917808,"14:43","set1","male",NA,"not sure","SPOKE SPANISH WITH DAD",7y 0m 6d 6H 0M 0S
"252","bonus","Do you think this one can think?",19,"BI2A00046","NO",NA,8024,"p14",7.021917808,"14:43","set1","male",NA,"","SPOKE SPANISH WITH DAD",7y 0m 6d 6H 0M 0S
"253","bonus","Do you think this can feel happy?",20,"BI2A00020","NO",NA,9140,"p14",7.021917808,"14:43","set1","male",NA,"","SPOKE SPANISH WITH DAD",7y 0m 6d 6H 0M 0S
"254","bonus","Do you think this one can feel hungry?",21,"BI2A00008","YES",NA,14944,"p14",7.021917808,"14:43","set1","male",NA,"cuz I said monkey","SPOKE SPANISH WITH DAD",7y 0m 6d 6H 0M 0S
"255","bonus","Do you think this one has feelings?",22,"BI2A00003","NO",NA,14849,"p14",7.021917808,"14:43","set1","male",NA,"","SPOKE SPANISH WITH DAD",7y 0m 6d 6H 0M 0S
"256","practice",NA,1,"apple_1","skip",NA,11144,"p15",5.460273973,"14:56","set1","male",NA,NA,NA,5y 0m 166d 18H 0M 0S
"257","practice",NA,2,"apple_2","skip",NA,3383,"p15",5.460273973,"14:56","set1","male",NA,NA,NA,5y 0m 166d 18H 0M 0S
"258","practice",NA,3,"apple_3","skip",NA,3255,"p15",5.460273973,"14:56","set1","male",NA,NA,NA,5y 0m 166d 18H 0M 0S
"259","practice",NA,4,"apple_1","skip",NA,11251,"p15",5.460273973,"14:56","set1","male",NA,NA,NA,5y 0m 166d 18H 0M 0S
"260","study","do you think this one is an animal?",5,"BI2A00028","maybe YES",0.5,12521,"p15",5.460273973,"14:56","set1","male",NA,NA,NA,5y 0m 166d 18H 0M 0S
"261","study","do you think this one is an animal?",6,"BI2A00043","maybe NO",-0.5,10852,"p15",5.460273973,"14:56","set1","male",NA,NA,NA,5y 0m 166d 18H 0M 0S
"262","study","do you think this one is an animal?",7,"BI2A00030","maybe NO",-0.5,9439,"p15",5.460273973,"14:56","set1","male",NA,NA,NA,5y 0m 166d 18H 0M 0S
"263","study","do you think this one is an animal?",8,"BI2A00046","maybe NO",-0.5,6304,"p15",5.460273973,"14:56","set1","male",NA,NA,NA,5y 0m 166d 18H 0M 0S
"264","study","do you think this one is an animal?",9,"BI2A00015","maybe YES",0.5,8341,"p15",5.460273973,"14:56","set1","male",NA,NA,NA,5y 0m 166d 18H 0M 0S
"265","study","do you think this one is an animal?",10,"BI2A00014","maybe YES",0.5,6268,"p15",5.460273973,"14:56","set1","male",NA,NA,NA,5y 0m 166d 18H 0M 0S
"266","study","do you think this one is an animal?",11,"BI2A00020","definitely YES",2.5,6236,"p15",5.460273973,"14:56","set1","male",NA,NA,NA,5y 0m 166d 18H 0M 0S
"267","study","do you think this one is an animal?",12,"BI2A00003","definitely YES",2.5,9303,"p15",5.460273973,"14:56","set1","male",NA,NA,NA,5y 0m 166d 18H 0M 0S
"268","study","do you think this one is an animal?",13,"BI2A00033","maybe NO",-0.5,6378,"p15",5.460273973,"14:56","set1","male",NA,NA,NA,5y 0m 166d 18H 0M 0S
"269","study","do you think this one is an animal?",14,"BI2A00008","definitely YES",2.5,5984,"p15",5.460273973,"14:56","set1","male",NA,NA,NA,5y 0m 166d 18H 0M 0S
"270","study","do you think this one is an animal?",15,"BI2A00031","definitely NO",-2.5,7611,"p15",5.460273973,"14:56","set1","male",NA,NA,NA,5y 0m 166d 18H 0M 0S
"271","study","do you think this one is an animal?",16,"BI2A00047","maybe YES",0.5,7237,"p15",5.460273973,"14:56","set1","male",NA,NA,NA,5y 0m 166d 18H 0M 0S
"272","bonus","Do you think this one can feel hungry?",17,"BI2A00003","maybe YES",0.5,28062,"p15",5.460273973,"14:56","set1","male",NA,NA,NA,5y 0m 166d 18H 0M 0S
"273","bonus","Do you think this one can think?",18,"BI2A00020","maybe NO",-0.5,14461,"p15",5.460273973,"14:56","set1","male",NA,NA,NA,5y 0m 166d 18H 0M 0S
"274","bonus","Do you think this one can feel hurt?",19,"BI2A00043","YES",NA,6771,"p15",5.460273973,"14:56","set1","male",NA,NA,NA,5y 0m 166d 18H 0M 0S
"275","bonus","Do you think this one has feelings?",20,"BI2A00008","NO",NA,10545,"p15",5.460273973,"14:56","set1","male",NA,NA,NA,5y 0m 166d 18H 0M 0S
"276","bonus","Do you think this can feel happy?",21,"BI2A00031","YES",NA,8488,"p15",5.460273973,"14:56","set1","male",NA,NA,NA,5y 0m 166d 18H 0M 0S
"277","bonus","Do you think this one can sense things nearby?",22,"BI2A00046","YES",NA,7436,"p15",5.460273973,"14:56","set1","male",NA,NA,NA,5y 0m 166d 18H 0M 0S
"278","practice",NA,1,"apple_1","skip",NA,11916,"p17",6.619178082,"15:19","set3","female",NA,"",NA,6y 0m 224d 12H 0M 0S
"279","practice",NA,2,"apple_2","skip",NA,4764,"p17",6.619178082,"15:19","set3","female",NA,"",NA,6y 0m 224d 12H 0M 0S
"280","practice",NA,3,"apple_3","skip",NA,2726,"p17",6.619178082,"15:19","set3","female",NA,"",NA,6y 0m 224d 12H 0M 0S
"281","practice",NA,4,"apple_1","skip",NA,10668,"p17",6.619178082,"15:19","set3","female",NA,"",NA,6y 0m 224d 12H 0M 0S
"282","study","do you think this one is an animal?",5,"BI2A00018","definitely YES",2.5,17341,"p17",6.619178082,"15:19","set3","female",NA,"",NA,6y 0m 224d 12H 0M 0S
"283","study","do you think this one is an animal?",6,"BI2A00027","maybe NO",-0.5,30409,"p17",6.619178082,"15:19","set3","female",NA,"",NA,6y 0m 224d 12H 0M 0S
"284","study","do you think this one is an animal?",7,"BI2A00019","definitely YES",2.5,7971,"p17",6.619178082,"15:19","set3","female",NA,"",NA,6y 0m 224d 12H 0M 0S
"285","study","do you think this one is an animal?",8,"BI2A00005","definitely YES",2.5,4285,"p17",6.619178082,"15:19","set3","female",NA,"",NA,6y 0m 224d 12H 0M 0S
"286","study","do you think this one is an animal?",9,"BI2A00007","definitely YES",2.5,3910,"p17",6.619178082,"15:19","set3","female",NA,"",NA,6y 0m 224d 12H 0M 0S
"287","study","do you think this one is an animal?",10,"BI2A00017","definitely YES",2.5,4918,"p17",6.619178082,"15:19","set3","female",NA,"",NA,6y 0m 224d 12H 0M 0S
"288","study","do you think this one is an animal?",11,"BI2A00035","maybe NO",-0.5,12925,"p17",6.619178082,"15:19","set3","female",NA,"",NA,6y 0m 224d 12H 0M 0S
"289","study","do you think this one is an animal?",12,"BI2A00026","definitely YES",2.5,15340,"p17",6.619178082,"15:19","set3","female",NA,"",NA,6y 0m 224d 12H 0M 0S
"290","study","do you think this one is an animal?",13,"BI2A00025","maybe YES",0.5,7642,"p17",6.619178082,"15:19","set3","female",NA,"",NA,6y 0m 224d 12H 0M 0S
"291","study","do you think this one is an animal?",14,"BI2A00036","definitely YES",2.5,46843,"p17",6.619178082,"15:19","set3","female",NA,"rug",NA,6y 0m 224d 12H 0M 0S
"292","study","do you think this one is an animal?",15,"BI2A00010","probably YES",1.5,24334,"p17",6.619178082,"15:19","set3","female",NA,"dog",NA,6y 0m 224d 12H 0M 0S
"293","study","do you think this one is an animal?",16,"BI2A00044","definitely NO",-2.5,14928,"p17",6.619178082,"15:19","set3","female",NA,"",NA,6y 0m 224d 12H 0M 0S
"294","bonus","Do you think this one can think?",17,"BI2A00035","NO",NA,19480,"p17",6.619178082,"15:19","set3","female",NA,"paper",NA,6y 0m 224d 12H 0M 0S
"295","bonus","Do you think this one can sense things nearby?",18,"BI2A00044","NO",NA,6469,"p17",6.619178082,"15:19","set3","female",NA,"",NA,6y 0m 224d 12H 0M 0S
"296","bonus","Do you think this one has feelings?",19,"BI2A00007","YES",NA,5930,"p17",6.619178082,"15:19","set3","female",NA,"",NA,6y 0m 224d 12H 0M 0S
"297","bonus","Do you think this one can feel pain?",20,"BI2A00005","YES",NA,6860,"p17",6.619178082,"15:19","set3","female",NA,"",NA,6y 0m 224d 12H 0M 0S
"298","bonus","Do you think this can feel happy?",21,"BI2A00018","maybe YES",0.5,17635,"p17",6.619178082,"15:19","set3","female",NA,"",NA,6y 0m 224d 12H 0M 0S
"299","bonus","Do you think this one can feel hungry?",22,"BI2A00017","YES",NA,6808,"p17",6.619178082,"15:19","set3","female",NA,"",NA,6y 0m 224d 12H 0M 0S
"300","practice",NA,1,"apple_1","skip",NA,13842,"p18",5.342465753,"15:44","set4","male","often","",NA,5y 0m 123d 18H 0M 0S
"301","practice",NA,2,"apple_2","skip",NA,3388,"p18",5.342465753,"15:44","set4","male","often","",NA,5y 0m 123d 18H 0M 0S
"302","practice",NA,3,"apple_3","skip",NA,3393,"p18",5.342465753,"15:44","set4","male","often","",NA,5y 0m 123d 18H 0M 0S
"303","practice",NA,4,"apple_1","skip",NA,11068,"p18",5.342465753,"15:44","set4","male","often","",NA,5y 0m 123d 18H 0M 0S
"304","study","do you think this one is an animal?",5,"BI2A00042","maybe NO",-0.5,17162,"p18",5.342465753,"15:44","set4","male","often","",NA,5y 0m 123d 18H 0M 0S
"305","study","do you think this one is an animal?",6,"BI2A00029","maybe NO",-0.5,12335,"p18",5.342465753,"15:44","set4","male","often","",NA,5y 0m 123d 18H 0M 0S
"306","study","do you think this one is an animal?",7,"BI2A00022","maybe YES",0.5,12792,"p18",5.342465753,"15:44","set4","male","often","",NA,5y 0m 123d 18H 0M 0S
"307","study","do you think this one is an animal?",8,"BI2A00024","probably YES",1.5,16133,"p18",5.342465753,"15:44","set4","male","often","porcupine",NA,5y 0m 123d 18H 0M 0S
"308","study","do you think this one is an animal?",9,"BI2A00012","maybe YES",0.5,11909,"p18",5.342465753,"15:44","set4","male","often","",NA,5y 0m 123d 18H 0M 0S
"309","study","do you think this one is an animal?",10,"BI2A00039","probably NO",-1.5,9413,"p18",5.342465753,"15:44","set4","male","often","",NA,5y 0m 123d 18H 0M 0S
"310","study","do you think this one is an animal?",11,"BI2A00021","probably NO",-1.5,5207,"p18",5.342465753,"15:44","set4","male","often","",NA,5y 0m 123d 18H 0M 0S
"311","study","do you think this one is an animal?",12,"BI2A00011","probably YES",1.5,6849,"p18",5.342465753,"15:44","set4","male","often","",NA,5y 0m 123d 18H 0M 0S
"312","study","do you think this one is an animal?",13,"BI2A00048","probably NO",-1.5,9590,"p18",5.342465753,"15:44","set4","male","often","",NA,5y 0m 123d 18H 0M 0S
"313","study","do you think this one is an animal?",14,"BI2A00023","maybe YES",0.5,8137,"p18",5.342465753,"15:44","set4","male","often","",NA,5y 0m 123d 18H 0M 0S
"314","study","do you think this one is an animal?",15,"BI2A00001","probably YES",1.5,7563,"p18",5.342465753,"15:44","set4","male","often","",NA,5y 0m 123d 18H 0M 0S
"315","study","do you think this one is an animal?",16,"BI2A00009","probably YES",1.5,7710,"p18",5.342465753,"15:44","set4","male","often","",NA,5y 0m 123d 18H 0M 0S
"316","bonus","Do you think this one can feel pain?",17,"BI2A00048","maybe NO",-0.5,13445,"p18",5.342465753,"15:44","set4","male","often","",NA,5y 0m 123d 18H 0M 0S
"317","bonus","Do you think this one has feelings?",18,"BI2A00023","probably NO",-1.5,9357,"p18",5.342465753,"15:44","set4","male","often","",NA,5y 0m 123d 18H 0M 0S
"318","bonus","Do you think this can feel happy?",19,"BI2A00011","probably YES",1.5,9590,"p18",5.342465753,"15:44","set4","male","often","",NA,5y 0m 123d 18H 0M 0S
"319","bonus","Do you think this one can sense things nearby?",20,"BI2A00022","probably NO",-1.5,10901,"p18",5.342465753,"15:44","set4","male","often","",NA,5y 0m 123d 18H 0M 0S
"320","bonus","Do you think this one can feel hungry?",21,"BI2A00039","probably NO",-1.5,8564,"p18",5.342465753,"15:44","set4","male","often","",NA,5y 0m 123d 18H 0M 0S
"321","bonus","Do you think this one can think?",22,"BI2A00009","probably NO",-1.5,5471,"p18",5.342465753,"15:44","set4","male","often","",NA,5y 0m 123d 18H 0M 0S
